"Time (s)","Linear Acceleration x (m/s^2)","Linear Acceleration y (m/s^2)","Linear Acceleration z (m/s^2)"
1.973751700E-2,3.107190132E-2,5.544996262E-2,3.029079437E-1
2.474439200E-2,5.154943466E-2,2.228212357E-2,5.950260162E-1
2.975543400E-2,7.718968391E-2,-6.264114380E-2,9.063014984E-1
3.477126700E-2,9.056663513E-2,-1.834316254E-1,1.116472244E0
3.979230900E-2,4.733133316E-2,-3.460793495E-1,1.154003143E0
4.481876700E-2,-4.853844643E-2,-5.305347443E-1,1.104854584E0
4.985059000E-2,-1.362011433E-1,-6.796665192E-1,9.418401718E-1
5.488751700E-2,-2.471017838E-1,-8.035240173E-1,7.029876709E-1
5.992908000E-2,-3.330807686E-1,-8.529932499E-1,3.965425491E-1
6.497470500E-2,-3.808512688E-1,-8.511545658E-1,2.581024170E-2
7.002361100E-2,-4.794254303E-1,-8.224484921E-1,-3.707208633E-1
7.507496500E-2,-5.618929863E-1,-7.358982563E-1,-7.165718079E-1
8.012783000E-2,-5.612919331E-1,-6.559355259E-1,-1.027970314E0
8.518126700E-2,-5.174219608E-1,-5.896093845E-1,-1.292226791E0
9.022652800E-2,-4.850921631E-1,-4.899368286E-1,-1.487399101E0
9.525736100E-2,-4.339330196E-1,-4.029483795E-1,-1.682016373E0
1.002881940E-1,-3.161480427E-1,-3.363423347E-1,-1.908931732E0
1.053190280E-1,-1.578338146E-1,-3.247499466E-1,-2.094821930E0
1.103498610E-1,1.693081856E-2,-3.833994865E-1,-2.274171829E0
1.153806940E-1,2.405583858E-1,-4.770872593E-1,-2.415631294E0
1.204115280E-1,3.800659180E-1,-5.221087933E-1,-2.511566162E0
1.254423610E-1,5.416593552E-1,-5.984385014E-1,-2.558939934E0
1.304731940E-1,7.580105066E-1,-7.416667938E-1,-2.536278725E0
1.355040280E-1,1.056375980E0,-9.355247021E-1,-2.450239182E0
1.405348610E-1,1.362250209E0,-1.113812923E0,-2.343790054E0
1.455656940E-1,1.585448027E0,-1.291135073E0,-2.272146225E0
1.505965280E-1,1.684756756E0,-1.435352564E0,-2.210233688E0
1.556273610E-1,1.711978674E0,-1.510643959E0,-2.180316925E0
1.606581940E-1,1.646973133E0,-1.537640572E0,-2.153274536E0
1.656890280E-1,1.525035620E0,-1.526960850E0,-2.147418976E0
1.707198610E-1,1.333774805E0,-1.498199940E0,-2.157333374E0
1.757506940E-1,1.125730038E0,-1.414455891E0,-2.205804825E0
1.807815280E-1,9.052360058E-1,-1.304854870E0,-2.296501637E0
1.858123610E-1,6.533120871E-1,-1.230432034E0,-2.391098022E0
1.908431940E-1,3.749185801E-1,-1.176095009E0,-2.526823044E0
1.958740280E-1,1.448820829E-1,-1.094629765E0,-2.679350376E0
2.009048610E-1,-4.316473007E-2,-1.037782669E0,-2.876404285E0
2.059356940E-1,-2.280368805E-1,-9.673590660E-1,-3.084404945E0
2.109665280E-1,-4.201111794E-1,-9.302785397E-1,-3.251980782E0
2.159973610E-1,-5.925581455E-1,-8.556632996E-1,-3.380372524E0
2.210281940E-1,-7.238030434E-1,-7.772631645E-1,-3.447291851E0
2.260590280E-1,-8.111875057E-1,-7.140350342E-1,-3.454224110E0
2.310898610E-1,-8.423306942E-1,-6.613202095E-1,-3.430490971E0
2.361206940E-1,-8.750650883E-1,-6.192493439E-1,-3.400021076E0
2.411515280E-1,-8.672268391E-1,-5.832724571E-1,-3.348663807E0
2.461823610E-1,-8.902065754E-1,-5.581459999E-1,-3.323612690E0
2.512131940E-1,-8.970162868E-1,-5.249538422E-1,-3.286842346E0
2.562440280E-1,-9.355330467E-1,-4.837162495E-1,-3.224649429E0
2.612748610E-1,-9.584155083E-1,-3.877155781E-1,-3.132773876E0
2.663056940E-1,-8.952009678E-1,-2.707891464E-1,-3.025704861E0
2.713365280E-1,-7.751414776E-1,-1.803529263E-1,-2.950419903E0
2.763673610E-1,-6.316223145E-1,-8.289194107E-2,-2.892046452E0
2.813981940E-1,-5.305266380E-1,-2.068185806E-2,-2.807862759E0
2.864290280E-1,-4.146087170E-1,8.703136444E-2,-2.731215954E0
2.914598610E-1,-2.791562080E-1,1.785438061E-1,-2.647799969E0
2.964906940E-1,-1.148755550E-1,2.401733398E-1,-2.562353611E0
3.015215280E-1,-2.077031136E-2,3.006801605E-1,-2.446506023E0
3.065523610E-1,2.781510353E-2,3.599972725E-1,-2.300644398E0
3.115831940E-1,5.978083611E-2,4.415950775E-1,-2.125129700E0
3.166140280E-1,1.080219746E-1,5.119843483E-1,-1.934464455E0
3.216448610E-1,1.771001816E-1,5.853219032E-1,-1.714514256E0
3.266756940E-1,2.341587543E-1,6.283869743E-1,-1.545521259E0
3.317065280E-1,2.844270468E-1,6.699829102E-1,-1.440662861E0
3.367373610E-1,3.517705202E-1,7.337777615E-1,-1.332847118E0
3.417681940E-1,3.936269283E-1,8.148422241E-1,-1.160727501E0
3.467990280E-1,4.247242212E-1,8.807241917E-1,-9.726104736E-1
3.518298610E-1,4.558335543E-1,9.370439053E-1,-8.205232620E-1
3.568606940E-1,4.925246239E-1,9.655544758E-1,-7.227611542E-1
3.618915800E-1,4.839881659E-1,1.005004883E0,-6.501650810E-1
3.669224650E-1,4.223461151E-1,1.027168512E0,-5.644898415E-1
3.719533510E-1,3.414716721E-1,1.032588005E0,-5.179648399E-1
3.769842360E-1,3.076419830E-1,1.016787767E0,-5.006489754E-1
3.820151220E-1,2.775993347E-1,9.941451550E-1,-5.121541023E-1
3.870460070E-1,2.224396467E-1,9.882297516E-1,-5.001912117E-1
3.920768920E-1,1.179623604E-1,1.003151417E0,-4.698200226E-1
3.971077780E-1,-7.788062096E-3,1.033504486E0,-4.165668488E-1
4.021386630E-1,-1.368755102E-1,1.064405918E0,-2.603816986E-1
4.071695490E-1,-2.516809702E-1,1.062247992E0,-3.093814850E-2
4.122004340E-1,-3.347543478E-1,1.026839733E0,1.763257980E-1
4.172313190E-1,-3.729304075E-1,9.912755489E-1,3.807086945E-1
4.222622050E-1,-3.571299314E-1,9.366314411E-1,5.539684296E-1
4.272930900E-1,-3.587481976E-1,9.150798321E-1,7.392044067E-1
4.323239760E-1,-2.776968479E-1,9.263086319E-1,9.364204407E-1
4.373548610E-1,-1.381678581E-1,9.369134903E-1,1.098261833E0
4.423857470E-1,-1.591551304E-2,9.376368523E-1,1.206310272E0
4.474166320E-1,6.609976292E-2,9.146289825E-1,1.351163864E0
4.524475170E-1,7.532334328E-2,8.685274124E-1,1.513391495E0
4.574784030E-1,3.088712692E-3,8.185818195E-1,1.664410591E0
4.625092880E-1,-1.309401989E-1,7.318460941E-1,1.742726326E0
4.675401740E-1,-2.879796028E-1,6.325771809E-1,1.758595467E0
4.725710590E-1,-4.433706999E-1,5.307216644E-1,1.717430115E0
4.776019440E-1,-5.865049362E-1,4.643337727E-1,1.648400307E0
4.826328300E-1,-7.114038467E-1,4.712080956E-1,1.594548225E0
4.876637150E-1,-7.889252901E-1,5.220994949E-1,1.536907196E0
4.926946010E-1,-8.003742695E-1,6.023929119E-1,1.522894859E0
4.977254860E-1,-7.566987276E-1,6.548433304E-1,1.575644493E0
5.027563720E-1,-6.743245125E-1,6.511368752E-1,1.689533234E0
5.077872570E-1,-5.273507833E-1,5.635037422E-1,1.792472839E0
5.128181420E-1,-3.373137712E-1,4.359848499E-1,1.869872093E0
5.178490280E-1,-1.539460421E-1,2.981591225E-1,1.902495384E0
5.228799130E-1,-4.967319965E-2,1.744494438E-1,1.909392357E0
5.279107990E-1,-4.830574989E-2,3.198766708E-2,1.919086456E0
5.329416840E-1,-1.210595369E-1,-1.000936031E-1,1.959893227E0
5.379725690E-1,-2.530964613E-1,-2.691276073E-1,2.026897430E0
5.430034550E-1,-4.244463444E-1,-4.083204269E-1,2.034745216E0
5.480343400E-1,-5.859436989E-1,-5.419359207E-1,2.074606895E0
5.530652260E-1,-7.406630516E-1,-6.277456284E-1,2.089808464E0
5.580961110E-1,-9.241914749E-1,-6.335017681E-1,2.104892731E0
5.631269970E-1,-1.138204813E0,-5.370650291E-1,2.087283134E0
5.681578820E-1,-1.332165480E0,-3.591957092E-1,2.094737053E0
5.731887670E-1,-1.475608349E0,-1.349859238E-1,2.117982864E0
5.782196530E-1,-1.548428535E0,6.743216515E-2,2.095527649E0
5.832505380E-1,-1.573944330E0,3.183636665E-1,2.013732910E0
5.882813720E-1,-1.575723171E0,4.883725643E-1,1.835207939E0
5.933122050E-1,-1.558542490E0,5.875320435E-1,1.579625130E0
5.983430380E-1,-1.518449545E0,6.260449886E-1,1.294883728E0
6.033738720E-1,-1.485146761E0,5.571913719E-1,9.999532700E-1
6.084047050E-1,-1.489028931E0,4.205677509E-1,7.135038376E-1
6.134355380E-1,-1.479944944E0,2.646584511E-1,5.443334579E-1
6.184663720E-1,-1.427508354E0,8.497500420E-2,4.627027512E-1
6.234972050E-1,-1.334672451E0,-1.375429630E-1,4.249610901E-1
6.285280380E-1,-1.232438564E0,-3.697623014E-1,3.878831863E-1
6.335588720E-1,-1.160690308E0,-5.694117546E-1,3.941373825E-1
6.385897050E-1,-1.138801813E0,-6.520524025E-1,3.959531784E-1
6.436205380E-1,-1.099188209E0,-6.431837082E-1,3.887948990E-1
6.486513720E-1,-1.041151047E0,-5.586421490E-1,3.966913223E-1
6.536822050E-1,-9.827729464E-1,-4.284281731E-1,4.197444916E-1
6.587130380E-1,-9.420736432E-1,-3.060736656E-1,4.675579071E-1
6.637438720E-1,-8.750328422E-1,-2.064714432E-1,4.260864258E-1
6.687747050E-1,-7.857610583E-1,-1.486957073E-1,3.388538361E-1
6.738055380E-1,-6.927562356E-1,-1.134051085E-1,1.682157516E-1
6.788363720E-1,-5.720124841E-1,-1.570746899E-1,-9.001922607E-2
6.838672050E-1,-4.283327460E-1,-2.351723909E-1,-4.068880081E-1
6.888980380E-1,-2.857374549E-1,-3.130135536E-1,-7.061262131E-1
6.939288720E-1,-1.205831170E-1,-3.417805433E-1,-1.002360344E0
6.989597050E-1,5.270588398E-2,-3.634779453E-1,-1.314835548E0
7.039905380E-1,2.198162079E-1,-4.626512527E-1,-1.572332382E0
7.090213720E-1,3.616187871E-1,-6.188322306E-1,-1.851496696E0
7.140522050E-1,3.979031444E-1,-7.975122929E-1,-2.114303589E0
7.190830380E-1,3.969564438E-1,-9.599490762E-1,-2.337204933E0
7.241138720E-1,3.739781678E-1,-1.134456396E0,-2.482529640E0
7.291447050E-1,3.107943535E-1,-1.330405951E0,-2.641207218E0
7.341755380E-1,1.561343819E-1,-1.552302837E0,-2.832223415E0
7.392063720E-1,-4.591841996E-2,-1.771227241E0,-3.031676292E0
7.442372050E-1,-1.949434429E-1,-1.939219475E0,-3.230147362E0
7.492680380E-1,-3.109933734E-1,-2.065288782E0,-3.356551647E0
7.542988720E-1,-3.759692609E-1,-2.082232475E0,-3.430642605E0
7.593297050E-1,-3.864434063E-1,-1.965989828E0,-3.476806164E0
7.643605380E-1,-3.720929623E-1,-1.707275867E0,-3.500147343E0
7.693913720E-1,-3.529331982E-1,-1.344825268E0,-3.500880718E0
7.744222050E-1,-3.335477710E-1,-9.458502531E-1,-3.455365658E0
7.794530380E-1,-3.420345485E-1,-5.296013355E-1,-3.373393536E0
7.844838720E-1,-3.398405910E-1,-1.250176430E-1,-3.274137020E0
7.895147050E-1,-3.413959742E-1,2.342333794E-1,-3.138549805E0
7.945455380E-1,-3.469270766E-1,5.575212240E-1,-2.966739655E0
7.995763720E-1,-3.468934000E-1,8.302621841E-1,-2.749262810E0
8.046072050E-1,-3.555769026E-1,1.042871118E0,-2.524350643E0
8.096380380E-1,-3.876157701E-1,1.171240211E0,-2.253801823E0
8.146688720E-1,-4.296698570E-1,1.219956160E0,-1.980550766E0
8.196997050E-1,-5.166971684E-1,1.093533993E0,-1.680635452E0
8.247305380E-1,-6.255808473E-1,8.162355423E-1,-1.449244976E0
8.297613720E-1,-7.328973413E-1,5.313403606E-1,-1.271574020E0
8.347922050E-1,-8.819760680E-1,2.718003988E-1,-1.170982361E0
8.398230380E-1,-9.820045233E-1,2.744483948E-2,-9.707851410E-1
8.448539240E-1,-1.046977639E0,-1.308530569E-1,-7.714233398E-1
8.498848090E-1,-1.008867621E0,-2.275227308E-1,-5.823736191E-1
8.549156940E-1,-8.563864827E-1,-2.103827000E-1,-3.988437653E-1
8.599465800E-1,-6.119008064E-1,-9.881699085E-2,-1.875524521E-1
8.649774650E-1,-3.267127275E-1,6.393992901E-2,4.652500153E-2
8.700083510E-1,-5.709467828E-2,2.445625067E-1,2.888984680E-1
8.750392360E-1,1.788470745E-1,4.240801334E-1,4.871015549E-1
8.800701220E-1,4.055002928E-1,5.787076950E-1,6.128053665E-1
8.851010070E-1,6.567388773E-1,7.325460911E-1,6.854314804E-1
8.901318920E-1,8.564379215E-1,8.810899258E-1,7.480974197E-1
8.951627780E-1,1.014665365E0,9.913055897E-1,8.722553253E-1
9.001936630E-1,1.155412436E0,1.101525664E0,1.024266243E0
9.052245490E-1,1.278629661E0,1.187885404E0,1.165944099E0
9.102554340E-1,1.379011035E0,1.217043281E0,1.287910461E0
9.152863190E-1,1.465151668E0,1.208233476E0,1.385605812E0
9.203172050E-1,1.406893730E0,1.104505062E0,1.473517418E0
9.253480900E-1,1.313267112E0,1.011491776E0,1.513608932E0
9.303789760E-1,1.240994811E0,9.721920490E-1,1.387098312E0
9.354098610E-1,1.127473950E0,9.103590250E-1,1.237752914E0
9.404407470E-1,9.243554473E-1,7.166041136E-1,1.232393265E0
9.454716320E-1,6.638327241E-1,3.484233022E-1,1.298828125E0
9.505025170E-1,3.687924147E-1,6.622135639E-3,1.436663628E0
9.555334030E-1,1.006764024E-1,-2.714760303E-1,1.674132347E0
9.605642880E-1,-1.840443313E-1,-5.107376575E-1,1.982157707E0
9.655951740E-1,-4.667220414E-1,-6.883808374E-1,2.341334343E0
9.706260590E-1,-6.808416843E-1,-8.150967360E-1,2.722836494E0
9.756569440E-1,-8.459860086E-1,-8.728859425E-1,3.136079788E0
9.806878300E-1,-9.859201908E-1,-8.057348132E-1,3.633318901E0
9.857187150E-1,-1.047144413E0,-6.153174639E-1,4.104640961E0
9.907498610E-1,-1.018932343E0,-3.842321634E-1,4.502647400E0
9.957809550E-1,-9.097371101E-1,-1.230253577E-1,4.813525200E0
1.000811840E0,-6.900548339E-1,1.908984780E-1,5.090250969E0
1.005842674E0,-3.552052975E-1,5.185822248E-1,5.342597961E0
1.010873507E0,6.528902054E-2,7.878735065E-1,5.508805275E0
1.015904340E0,4.651342630E-1,9.752603173E-1,5.594052315E0
1.020935174E0,8.288906217E-1,1.071875453E0,5.522472382E0
1.025966007E0,1.112339258E0,1.083623767E0,5.361469269E0
1.030996840E0,1.356184959E0,9.172717929E-1,4.977831841E0
1.036027674E0,1.577765703E0,6.331725717E-1,4.377129555E0
1.041058507E0,1.766834974E0,3.016124368E-1,3.612521172E0
1.046089340E0,1.919079781E0,-1.257306337E-2,2.837028503E0
1.051120174E0,1.973677635E0,-2.928904295E-1,2.102912903E0
1.056151007E0,1.927762747E0,-5.329877138E-1,1.452713013E0
1.061181840E0,1.745983958E0,-7.267644405E-1,9.860067368E-1
1.066212674E0,1.451460361E0,-8.359520435E-1,7.067699432E-1
1.071243507E0,1.143476486E0,-8.899873495E-1,5.713844299E-1
1.076274340E0,7.864117622E-1,-9.186266661E-1,6.079330444E-1
1.081305174E0,4.767464995E-1,-9.135524035E-1,7.347221375E-1
1.086336007E0,2.144875228E-1,-9.192566872E-1,9.229021072E-1
1.091366840E0,-2.045363188E-2,-9.274792671E-1,1.057926178E0
1.096397674E0,-2.054525018E-1,-9.491110444E-1,1.159237862E0
1.101428507E0,-3.233594298E-1,-9.997073412E-1,1.279515266E0
1.106459340E0,-3.481042385E-1,-1.046705484E0,1.347181320E0
1.111490174E0,-3.058970571E-1,-1.095942378E0,1.414924622E0
1.116521007E0,-2.367764115E-1,-1.119636536E0,1.454136848E0
1.121551840E0,-1.610594988E-1,-1.118843794E0,1.450668335E0
1.126582674E0,-5.540698767E-2,-1.056354046E0,1.438135147E0
1.131613507E0,4.166281223E-2,-9.471734762E-1,1.454752922E0
1.136644340E0,1.447661519E-1,-8.442667723E-1,1.462333679E0
1.141675174E0,2.782999873E-1,-7.811338305E-1,1.341835976E0
1.146706007E0,3.859824240E-1,-7.624689341E-1,1.012922287E0
1.151736840E0,5.356837511E-1,-8.020378351E-1,6.339197159E-1
1.156767674E0,7.468633652E-1,-8.511663675E-1,2.717933655E-1
1.161798507E0,1.014389396E0,-8.801500201E-1,-6.408977509E-2
1.166829340E0,1.318401814E0,-9.259347320E-1,-4.407730103E-1
1.171860174E0,1.600764871E0,-9.729029536E-1,-8.344640732E-1
1.176891007E0,1.885135531E0,-9.959262609E-1,-1.269146919E0
1.181921840E0,2.152067900E0,-1.012798071E0,-1.659096718E0
1.186952674E0,2.344333172E0,-9.793215990E-1,-1.976158619E0
1.191983507E0,2.434255362E0,-9.660666585E-1,-2.249462128E0
1.197014340E0,2.370968819E0,-1.028823256E0,-2.651067257E0
1.202045174E0,2.209365606E0,-1.108827591E0,-3.008957386E0
1.207076007E0,1.985091090E0,-1.138408184E0,-3.232834816E0
1.212106840E0,1.662088037E0,-1.117687106E0,-3.361365318E0
1.217137674E0,1.304316998E0,-1.113596201E0,-3.480719566E0
1.222168559E0,9.652736187E-1,-1.126393557E0,-3.581280231E0
1.227199444E0,6.592224836E-1,-1.146690845E0,-3.658283710E0
1.232230330E0,3.854528368E-1,-1.103452921E0,-3.659250736E0
1.237261215E0,9.050309658E-2,-1.016905189E0,-3.593840122E0
1.242292101E0,-1.502475142E-1,-9.072418809E-1,-3.533659458E0
1.247322986E0,-3.432646394E-1,-7.610245943E-1,-3.440427303E0
1.252353872E0,-4.667116404E-1,-5.984115601E-1,-3.295121193E0
1.257384757E0,-5.467932224E-1,-3.872187138E-1,-3.050222397E0
1.262415642E0,-5.142791271E-1,-1.287589073E-1,-2.644152164E0
1.267446528E0,-3.857444525E-1,8.496665955E-2,-2.201583862E0
1.272477413E0,-2.247644663E-1,2.052809000E-1,-1.818048000E0
1.277508299E0,-1.129943132E-1,2.839465141E-1,-1.517098427E0
1.282539184E0,-4.536306858E-2,3.678004742E-1,-1.217201233E0
1.287570069E0,1.176559925E-2,4.606583118E-1,-9.897756577E-1
1.292600955E0,4.359722137E-2,4.906405210E-1,-8.966121674E-1
1.297631840E0,2.573025227E-2,4.916317463E-1,-9.325923920E-1
1.302662726E0,-7.086884975E-2,5.023977757E-1,-1.040178299E0
1.307693611E0,-2.132428885E-1,4.997953176E-1,-1.190723419E0
1.312724497E0,-3.348248005E-1,4.418355227E-1,-1.360423088E0
1.317755382E0,-5.096671581E-1,3.005018234E-1,-1.505982399E0
1.322786267E0,-6.396783590E-1,1.615557671E-1,-1.579325676E0
1.327817153E0,-6.482658386E-1,1.057281494E-1,-1.623490810E0
1.332848038E0,-4.177714586E-1,2.425757647E-1,-1.624423504E0
1.337878924E0,-2.367247343E-1,2.616358995E-1,-1.630181789E0
1.342909809E0,-1.473778486E-1,2.311241627E-1,-1.588329792E0
1.347940694E0,-9.133064747E-2,1.858627796E-1,-1.518210411E0
1.352971580E0,1.790642738E-2,2.170622349E-1,-1.362670898E0
1.358002465E0,3.156152964E-1,3.049876690E-1,-1.126435280E0
1.363033351E0,7.028559446E-1,3.677217960E-1,-9.334363937E-1
1.368064236E0,9.797445536E-1,4.621434212E-1,-8.262338638E-1
1.373095122E0,1.089064121E0,5.736007690E-1,-6.995248795E-1
1.378126007E0,1.087382555E0,7.212696075E-1,-5.439786911E-1
1.383156892E0,1.117141485E0,8.956100941E-1,-4.361248016E-1
1.388187778E0,1.092098117E0,1.039450169E0,-3.090028763E-1
1.393218663E0,1.037812471E0,1.119916677E0,-3.152751923E-1
1.398249549E0,9.043120742E-1,1.080225229E0,-4.447698593E-1
1.403280434E0,8.183784485E-1,9.308979511E-1,-6.302404404E-1
1.408311319E0,8.248136640E-1,7.729215622E-1,-8.762960434E-1
1.413342205E0,8.197994232E-1,6.259653568E-1,-1.058815956E0
1.418373090E0,7.418493629E-1,4.762375355E-1,-1.254591942E0
1.423403976E0,6.095510721E-1,3.104343414E-1,-1.387655258E0
1.428434861E0,4.507209361E-1,2.012200356E-1,-1.415719509E0
1.433465747E0,3.263417184E-1,1.822750568E-1,-1.334657669E0
1.438496632E0,2.067977488E-1,2.297956944E-1,-1.159377098E0
1.443527517E0,8.142203093E-2,3.099594116E-1,-9.379711151E-1
1.448558403E0,4.954740405E-2,4.174044132E-1,-6.896190643E-1
1.453589288E0,1.238842905E-1,5.657982826E-1,-3.904809952E-1
1.458620174E0,3.071581423E-1,7.214138508E-1,-6.941890717E-2
1.463651059E0,5.456765294E-1,7.838952541E-1,1.828050613E-1
1.468681944E0,7.202609777E-1,8.200483322E-1,3.617630005E-1
1.473712830E0,7.886602879E-1,7.963821888E-1,4.630117416E-1
1.478743715E0,7.233363390E-1,7.890098095E-1,6.253843307E-1
1.483774601E0,5.628582239E-1,7.783257961E-1,8.726720810E-1
1.488805486E0,3.121244609E-1,7.589530945E-1,1.166596413E0
1.493836372E0,-2.348160744E-2,7.494735718E-1,1.421290398E0
1.498867257E0,-4.051263928E-1,7.968437672E-1,1.713500977E0
1.503898142E0,-7.465347648E-1,8.526654243E-1,1.952604294E0
1.508929028E0,-1.038626909E0,8.730723858E-1,2.077004433E0
1.513959913E0,-1.200971127E0,8.387119770E-1,2.039453506E0
1.518990799E0,-1.158758879E0,7.876660824E-1,1.974138260E0
1.524021684E0,-9.855838418E-1,7.056233883E-1,1.852446556E0
1.529052569E0,-6.783706546E-1,6.217017174E-1,1.631408691E0
1.534083455E0,-3.766450286E-1,5.510172844E-1,1.354008675E0
1.539114340E0,-1.281573772E-1,5.325610638E-1,1.134707451E0
1.544145226E0,1.722952127E-1,5.671789646E-1,1.006406784E0
1.549176111E0,5.004299283E-1,5.982010365E-1,1.040151596E0
1.554206997E0,7.553669810E-1,5.213923454E-1,1.034699440E0
1.559237882E0,7.984226942E-1,3.616681099E-1,9.135875702E-1
1.564268767E0,6.546175480E-1,1.725764275E-1,7.629165649E-1
1.569299653E0,4.681746364E-1,7.878208160E-2,8.070278168E-1
1.574330538E0,2.541075945E-1,2.786564827E-2,1.026161194E0
1.579361424E0,-5.353295803E-2,-4.729938507E-2,1.305357933E0
1.584392309E0,-4.203197062E-1,-1.756479740E-1,1.549173355E0
1.589423194E0,-7.402852178E-1,-2.814512253E-1,1.858304024E0
1.594454080E0,-9.078941345E-1,-3.271408081E-1,2.270971298E0
1.599484965E0,-9.031375051E-1,-3.570067883E-1,2.663172722E0
1.604515851E0,-8.012037277E-1,-4.101834297E-1,2.825263023E0
1.609546736E0,-7.100574970E-1,-5.018742085E-1,2.848947525E0
1.614577622E0,-5.893036127E-1,-6.096160412E-1,2.844862938E0
1.619608455E0,-4.613296688E-1,-7.584569454E-1,2.741778374E0
1.624639288E0,-3.966271877E-1,-9.348840714E-1,2.602237701E0
1.629670122E0,-4.042914212E-1,-1.091658354E0,2.455081940E0
1.634700955E0,-4.701028168E-1,-1.238917589E0,2.228834152E0
1.639731788E0,-5.852764249E-1,-1.333743334E0,1.933268547E0
1.644762622E0,-7.134715915E-1,-1.347308159E0,1.635341644E0
1.649793455E0,-8.950089216E-1,-1.269905329E0,1.296779633E0
1.654824288E0,-1.103593588E0,-1.163252950E0,8.650445938E-1
1.659855122E0,-1.346799254E0,-1.021891117E0,3.879556656E-1
1.664885955E0,-1.517429113E0,-8.879086971E-1,-7.734870911E-2
1.669916788E0,-1.642289400E0,-7.360796928E-1,-4.406070709E-1
1.674947622E0,-1.675050378E0,-5.793991089E-1,-6.452732086E-1
1.679978455E0,-1.658939242E0,-4.840507507E-1,-7.540807724E-1
1.685009288E0,-1.593293190E0,-4.162240028E-1,-8.723859787E-1
1.690040122E0,-1.419355392E0,-3.613557816E-1,-9.381198883E-1
1.695070955E0,-1.097154856E0,-3.100085258E-1,-9.609193802E-1
1.700101788E0,-7.247532606E-1,-2.957000732E-1,-1.026829720E0
1.705132622E0,-3.756843209E-1,-3.327126503E-1,-1.111895561E0
1.710163455E0,-2.093447298E-1,-4.162433147E-1,-1.244777679E0
1.715194288E0,-1.655457616E-1,-5.415968895E-1,-1.449268818E0
1.720225122E0,-1.609362215E-1,-6.751866341E-1,-1.710988045E0
1.725255955E0,-2.179859281E-1,-8.929891586E-1,-2.006145477E0
1.730286788E0,-4.078243375E-1,-1.098817825E0,-2.315760136E0
1.735317622E0,-6.683801413E-1,-1.277976990E0,-2.616059303E0
1.740348455E0,-1.024709582E0,-1.373183012E0,-2.868828773E0
1.745379288E0,-1.397268653E0,-1.403768063E0,-3.021585941E0
1.750410122E0,-1.768834472E0,-1.436765194E0,-3.122258663E0
1.755440955E0,-2.041637659E0,-1.477002740E0,-3.132672787E0
1.760471788E0,-2.204398394E0,-1.510253787E0,-3.081614971E0
1.765502622E0,-2.193545818E0,-1.536808610E0,-2.935702324E0
1.770533455E0,-2.117700577E0,-1.466377616E0,-2.738030434E0
1.775564340E0,-1.941293478E0,-1.347187042E0,-2.569872856E0
1.780595226E0,-1.713584781E0,-1.174643278E0,-2.421613216E0
1.785626111E0,-1.472994328E0,-9.686245918E-1,-2.240465641E0
1.790656997E0,-1.261571169E0,-7.870979309E-1,-2.097934246E0
1.795687882E0,-1.149459600E0,-6.544392109E-1,-1.998455524E0
1.800718767E0,-1.124929190E0,-6.187312603E-1,-1.932164192E0
1.805749653E0,-1.090268731E0,-6.321783066E-1,-1.846344948E0
1.810780538E0,-1.053321123E0,-7.046711445E-1,-1.755207062E0
1.815811424E0,-1.031708479E0,-8.508012295E-1,-1.706379890E0
1.820842309E0,-1.029093981E0,-1.003648996E0,-1.752244949E0
1.825873194E0,-9.967402220E-1,-1.105680943E0,-1.816246033E0
1.830904080E0,-8.672584295E-1,-1.085047007E0,-1.802989960E0
1.835934965E0,-6.695098877E-1,-9.322714806E-1,-1.679368973E0
1.840965851E0,-3.519623876E-1,-6.810901165E-1,-1.469553947E0
1.845996736E0,3.254264593E-3,-3.603799343E-1,-1.278817654E0
1.851027622E0,3.100752532E-1,-7.516717911E-2,-1.121502876E0
1.856058507E0,5.690434575E-1,1.416127682E-1,-1.026322365E0
1.861089392E0,7.756851912E-1,2.952518463E-1,-9.836826324E-1
1.866120278E0,9.159865975E-1,3.815786839E-1,-9.458580017E-1
1.871151163E0,9.759855270E-1,4.726991653E-1,-9.368371964E-1
1.876182049E0,9.606698751E-1,5.447900295E-1,-8.753948212E-1
1.881212934E0,8.751817942E-1,6.312267780E-1,-7.664337158E-1
1.886243819E0,7.721703649E-1,7.077558041E-1,-5.765333176E-1
1.891274705E0,6.943113804E-1,7.691082954E-1,-2.770481110E-1
1.896305590E0,6.554446220E-1,8.004870415E-1,1.128520966E-1
1.901336476E0,5.406466722E-1,7.629542351E-1,4.308805466E-1
1.906367361E0,3.739814758E-1,7.326493263E-1,6.965150833E-1
1.911398247E0,2.751556635E-1,8.042793274E-1,9.388484955E-1
1.916429132E0,2.633176446E-1,9.152083397E-1,1.129402161E0
1.921460017E0,2.766197920E-1,9.744589329E-1,1.163286209E0
1.926490903E0,3.155083656E-1,9.877090454E-1,1.011940956E0
1.931521788E0,3.040257692E-1,1.051757097E0,8.138675690E-1
1.936552674E0,2.903242707E-1,1.129422188E0,6.212434769E-1
1.941583559E0,2.794659734E-1,1.221866608E0,4.001054764E-1
1.946614444E0,2.904512882E-1,1.311197042E0,1.547851562E-1
1.951645330E0,2.941632867E-1,1.398573399E0,-8.169078827E-2
1.956676215E0,3.042409420E-1,1.470654011E0,-2.142019272E-1
1.961707101E0,2.959466577E-1,1.494651318E0,-1.763610840E-1
1.966737986E0,2.876258492E-1,1.465825081E0,-2.583885193E-2
1.971768872E0,2.881518006E-1,1.374520302E0,1.894550323E-1
1.976799757E0,3.352224827E-1,1.296697855E0,4.600973129E-1
1.981830642E0,4.809921980E-1,1.231496572E0,8.818445206E-1
1.986861528E0,6.678960323E-1,1.129980564E0,1.364052773E0
1.991892413E0,7.955228090E-1,9.766993523E-1,1.854555130E0
1.996923299E0,8.928858042E-1,7.272877693E-1,2.296648026E0
2.001954184E0,9.073261023E-1,4.810628891E-1,2.643249512E0
2.006985069E0,7.436926365E-1,2.468230724E-1,2.875806808E0
2.012015955E0,4.075473547E-1,1.103918552E-1,2.937317848E0
2.017046840E0,4.312837124E-2,1.150364876E-1,2.918694496E0
2.022077726E0,-3.107743859E-1,1.653037071E-1,2.791243553E0
2.027108611E0,-5.292500257E-1,1.804285049E-1,2.516704559E0
2.032139497E0,-5.498650074E-1,1.803624630E-1,2.099807739E0
2.037170382E0,-3.775314689E-1,1.946461201E-1,1.659900665E0
2.042201267E0,-4.122006893E-2,2.243247032E-1,1.287283897E0
2.047232153E0,3.631341457E-1,2.942121029E-1,9.096965790E-1
2.052263038E0,6.155477762E-1,3.527610302E-1,6.174087524E-1
2.057293924E0,7.542759180E-1,4.294562340E-1,4.289808273E-1
2.062324809E0,8.076310158E-1,4.769778252E-1,3.726596832E-1
2.067355694E0,8.082209826E-1,4.571504593E-1,4.243755341E-1
2.072386580E0,7.553408146E-1,3.843297958E-1,6.174716949E-1
2.077417465E0,6.723194122E-1,2.913494110E-1,9.185905457E-1
2.082448351E0,5.207260847E-1,2.347884178E-1,1.265781403E0
2.087479236E0,3.584020138E-1,1.847181320E-1,1.611663818E0
2.092510122E0,2.814748287E-1,1.924209595E-1,1.971063614E0
2.097541007E0,3.380711079E-1,1.944918633E-1,2.253637314E0
2.102571892E0,4.331662655E-1,1.612539291E-1,2.450357437E0
2.107602778E0,5.242863894E-1,9.675788879E-2,2.590357780E0
2.112633663E0,6.357028484E-1,1.479911804E-2,2.635762215E0
2.117664549E0,7.199147940E-1,-4.671192169E-2,2.577342987E0
2.122695434E0,7.439188957E-1,-9.747171402E-2,2.458323479E0
2.127726319E0,7.130669355E-1,-1.710093021E-1,2.293146133E0
2.132757205E0,7.039103508E-1,-2.816808224E-1,2.034189224E0
2.137788090E0,7.497293949E-1,-3.668889999E-1,1.729292870E0
2.142818976E0,8.358463049E-1,-4.597990513E-1,1.454895020E0
2.147849861E0,9.141035080E-1,-5.312550068E-1,1.182110786E0
2.152880747E0,9.314163923E-1,-6.284515858E-1,8.820858002E-1
2.157911632E0,9.207615852E-1,-6.789610386E-1,5.642137527E-1
2.162942517E0,9.059406519E-1,-7.252810001E-1,2.426242828E-1
2.167973403E0,8.913041353E-1,-7.620389462E-1,-8.288764954E-2
2.173004288E0,8.674137592E-1,-8.365285397E-1,-4.077825546E-1
2.178035174E0,8.198400736E-1,-9.480562210E-1,-7.562198639E-1
2.183066059E0,7.053679228E-1,-1.067271233E0,-1.051961422E0
2.188096944E0,5.717508793E-1,-1.145905972E0,-1.247573853E0
2.193127830E0,4.328335524E-1,-1.212513685E0,-1.371997833E0
2.198158715E0,2.976489067E-1,-1.281393766E0,-1.458818436E0
2.203189601E0,1.897050142E-1,-1.338254213E0,-1.531960487E0
2.208220486E0,1.228983402E-1,-1.378353834E0,-1.600972176E0
2.213251372E0,1.499024630E-1,-1.397135019E0,-1.627598286E0
2.218282257E0,2.372949123E-1,-1.380333662E0,-1.678845882E0
2.223313142E0,3.521775007E-1,-1.376030207E0,-1.706865788E0
2.228344028E0,3.711705208E-1,-1.384402037E0,-1.721282482E0
2.233374913E0,2.956318855E-1,-1.386714220E0,-1.741186619E0
2.238405799E0,1.889019012E-1,-1.340070486E0,-1.833535671E0
2.243436684E0,1.043148041E-1,-1.283024549E0,-1.878705502E0
2.248467569E0,1.343190670E-2,-1.206112146E0,-1.862464428E0
2.253498455E0,-1.216673851E-2,-1.109385967E0,-1.818365574E0
2.258529340E0,-3.524196148E-2,-1.007485867E0,-1.789271832E0
2.263560226E0,-9.459239244E-2,-9.053514004E-1,-1.755884647E0
2.268591111E0,-1.761361957E-1,-7.983934879E-1,-1.775410175E0
2.273621997E0,-2.513442636E-1,-6.725137234E-1,-1.852369785E0
2.278652882E0,-2.963164449E-1,-5.327143669E-1,-1.938765049E0
2.283683767E0,-3.208644986E-1,-4.316291809E-1,-2.034524441E0
2.288714653E0,-3.684833050E-1,-3.975970745E-1,-2.197019577E0
2.293745538E0,-4.584682584E-1,-4.346718788E-1,-2.407232285E0
2.298776424E0,-6.388291121E-1,-4.322104454E-1,-2.555409908E0
2.303807309E0,-8.191227317E-1,-3.661916256E-1,-2.617842197E0
2.308838194E0,-9.570196271E-1,-2.988803387E-1,-2.542089462E0
2.313869080E0,-9.962560534E-1,-2.926981449E-1,-2.404673576E0
2.318899965E0,-9.664869308E-1,-3.000595570E-1,-2.277186394E0
2.323930851E0,-9.161367416E-1,-3.022167683E-1,-2.135505676E0
2.328961736E0,-8.169637918E-1,-2.947094440E-1,-2.008172512E0
2.333992622E0,-6.692927480E-1,-2.588980198E-1,-1.842387676E0
2.339023507E0,-4.924737215E-1,-1.953060627E-1,-1.590242863E0
2.344054392E0,-3.389533758E-1,-1.425807476E-1,-1.356896400E0
2.349085278E0,-2.125478983E-1,-1.059758663E-1,-1.170828819E0
2.354116163E0,-3.100401163E-2,-7.146382332E-2,-1.041419506E0
2.359147049E0,2.401208878E-1,8.505344391E-3,-9.350876808E-1
2.364177934E0,5.257592797E-1,1.384935379E-1,-8.709774017E-1
2.369208819E0,7.844594717E-1,2.372021675E-1,-8.778185844E-1
2.374239705E0,9.269590378E-1,2.618780136E-1,-9.317803383E-1
2.379270590E0,9.972376823E-1,2.556710243E-1,-1.023260593E0
2.384301476E0,9.477177262E-1,2.190847397E-1,-1.128482819E0
2.389332361E0,8.352496028E-1,2.193551064E-1,-1.199682236E0
2.394363247E0,6.775580645E-1,2.613220215E-1,-1.155617714E0
2.399394132E0,4.823822379E-1,3.212108612E-1,-1.125468254E0
2.404425017E0,2.482417822E-1,3.992271423E-1,-1.128300667E0
2.409455903E0,6.004446745E-2,4.905991554E-1,-1.116190910E0
2.414486788E0,-4.474943876E-2,5.762586594E-1,-1.079600334E0
2.419517674E0,-1.240043044E-1,6.183691025E-1,-1.090411186E0
2.424548559E0,-2.204154730E-1,6.605625153E-1,-1.139251709E0
2.429579444E0,-2.618150115E-1,6.889424324E-1,-1.173727036E0
2.434610330E0,-2.335259616E-1,7.089028358E-1,-1.218074799E0
2.439641215E0,-8.249950409E-2,7.640643120E-1,-1.229607582E0
2.444672101E0,6.742125750E-2,8.212165833E-1,-1.160811424E0
2.449702986E0,2.123444676E-1,8.518934250E-1,-1.078927040E0
2.454733872E0,3.151231408E-1,8.800649643E-1,-1.031866074E0
2.459764757E0,3.622982502E-1,9.009814262E-1,-9.670691490E-1
2.464795642E0,4.070122242E-1,9.002585411E-1,-8.606867790E-1
2.469826528E0,4.113413095E-1,8.920712471E-1,-7.222843170E-1
2.474857413E0,4.086766839E-1,9.096908569E-1,-5.900440216E-1
2.479888299E0,3.604317307E-1,9.241685867E-1,-4.255781174E-1
2.484919184E0,2.852303386E-1,9.734182358E-1,-3.052015305E-1
2.489950069E0,1.968545318E-1,1.004712582E0,-1.904973984E-1
2.494980955E0,1.421576142E-1,1.008396626E0,-5.264091492E-2
2.500011840E0,1.435065866E-1,9.750585556E-1,1.657295227E-1
2.505042726E0,1.467130780E-1,9.143266678E-1,4.980077744E-1
2.510073611E0,7.385355234E-2,8.213515282E-1,8.581085205E-1
2.515104497E0,-9.487536550E-2,7.007813454E-1,1.241343498E0
2.520135382E0,-3.165168464E-1,5.761947632E-1,1.619194984E0
2.525166267E0,-5.237112641E-1,4.758610725E-1,2.006196976E0
2.530197153E0,-6.725705266E-1,4.229030609E-1,2.383504868E0
2.535228038E0,-7.616649270E-1,4.549598694E-1,2.722603798E0
2.540258924E0,-8.370078206E-1,5.904593468E-1,3.033235550E0
2.545289809E0,-9.487314224E-1,7.762880325E-1,3.243736267E0
2.550320694E0,-1.046925783E0,9.064502716E-1,3.268456459E0
2.555351580E0,-1.025263190E0,9.377031326E-1,3.117356300E0
2.560382465E0,-8.935655951E-1,8.605117798E-1,2.833853722E0
2.565413351E0,-6.961954236E-1,7.184815407E-1,2.499357224E0
2.570444236E0,-4.830938876E-1,5.839014053E-1,2.219045639E0
2.575475122E0,-3.763380051E-1,4.861574173E-1,1.935335159E0
2.580506007E0,-2.972902060E-1,2.493114471E-1,1.700581551E0
2.585536892E0,-4.719046354E-1,4.003205299E-1,1.552580833E0
2.590567778E0,-7.036836147E-1,8.003640175E-1,1.486150742E0
2.595598663E0,-4.185391665E-1,7.757563591E-1,1.194949150E0
2.600629549E0,5.231636763E-2,4.038295746E-1,9.566411972E-1
2.605660434E0,3.064640760E-1,5.830287933E-3,8.952980042E-1
2.610691319E0,3.310403824E-1,-2.171924114E-1,9.339399338E-1
2.615722205E0,9.033763409E-2,-2.895114422E-1,1.048347473E0
2.620753090E0,-2.840871215E-1,-3.075020313E-1,1.204981804E0
2.625783976E0,-5.991259217E-1,-3.341579437E-1,1.375267029E0
2.630814861E0,-8.105389476E-1,-3.413276672E-1,1.458903313E0
2.635845747E0,-8.938021064E-1,-3.628950119E-1,1.451338768E0
2.640876632E0,-8.628109097E-1,-3.607587814E-1,1.367050171E0
2.645907517E0,-7.798711658E-1,-3.256220818E-1,1.225362778E0
2.650938403E0,-6.405509114E-1,-2.671916485E-1,9.977493286E-1
2.655969288E0,-4.455011487E-1,-2.187883854E-1,7.703619003E-1
2.661000174E0,-2.629129887E-1,-1.466386318E-1,5.862035751E-1
2.666031059E0,-4.664039612E-2,-6.003022194E-2,4.595746994E-1
2.671061944E0,1.156688929E-1,7.915496826E-3,4.238452911E-1
2.676092830E0,1.653358936E-1,4.299640656E-2,4.741945267E-1
2.681123715E0,1.117401123E-1,3.077745438E-2,5.484600067E-1
2.686154601E0,3.190040588E-2,9.294509888E-3,6.275806427E-1
2.691185486E0,-6.342911720E-2,-3.620076180E-2,6.924915314E-1
2.696216372E0,-1.635776162E-1,-1.442136765E-1,7.527856827E-1
2.701247257E0,-2.816199064E-1,-3.101558685E-1,8.562412262E-1
2.706278142E0,-4.491387010E-1,-5.054748058E-1,9.596157074E-1
2.711309028E0,-5.882534385E-1,-6.204142570E-1,1.034141541E0
2.716339913E0,-6.698820591E-1,-6.741776466E-1,1.012852669E0
2.721370799E0,-7.136029005E-1,-6.618888378E-1,9.054298401E-1
2.726401684E0,-6.913428307E-1,-6.599166393E-1,7.741355896E-1
2.731432569E0,-6.460404396E-1,-6.488211155E-1,6.379718781E-1
2.736463455E0,-5.389827490E-1,-6.524438858E-1,4.920749664E-1
2.741494340E0,-4.032053351E-1,-7.182593346E-1,2.645883560E-1
2.746525226E0,-3.192388415E-1,-7.790372372E-1,-3.016376495E-2
2.751556111E0,-3.200104237E-1,-8.583903313E-1,-3.396244049E-1
2.756586997E0,-3.813127279E-1,-8.988122940E-1,-6.159849167E-1
2.761617882E0,-4.363759160E-1,-9.527919292E-1,-8.975095749E-1
2.766648767E0,-5.479601622E-1,-1.015119791E0,-1.188996792E0
2.771679653E0,-7.265144587E-1,-1.080827475E0,-1.461637497E0
2.776710538E0,-9.065662622E-1,-1.140217781E0,-1.748748302E0
2.781741424E0,-1.042108536E0,-1.183776379E0,-1.954473972E0
2.786772309E0,-1.178413630E0,-1.201857328E0,-2.107477665E0
2.791803194E0,-1.317237616E0,-1.228133202E0,-2.198096275E0
2.796834080E0,-1.460183740E0,-1.234127522E0,-2.259728432E0
2.801864965E0,-1.569863081E0,-1.220483303E0,-2.277832031E0
2.806895851E0,-1.556043386E0,-1.206829786E0,-2.252319336E0
2.811926736E0,-1.394900441E0,-1.174502850E0,-2.140136242E0
2.816957622E0,-1.171877623E0,-1.095609188E0,-1.974689007E0
2.821988507E0,-9.389314651E-1,-1.032926321E0,-1.827620029E0
2.827019392E0,-7.382228374E-1,-9.486906528E-1,-1.727444172E0
2.832050278E0,-5.877550244E-1,-8.959763050E-1,-1.697864532E0
2.837081163E0,-4.196363091E-1,-8.413872719E-1,-1.748325825E0
2.842112049E0,-2.432854623E-1,-7.798354626E-1,-1.797572613E0
2.847142934E0,-9.219661355E-2,-7.159440517E-1,-1.831343174E0
2.852173819E0,-2.848839760E-2,-6.683151722E-1,-1.935924053E0
2.857204705E0,-1.854830980E-2,-5.839984417E-1,-2.049197674E0
2.862235590E0,-9.763747454E-3,-4.769060612E-1,-2.133113384E0
2.867266476E0,3.130719066E-2,-3.323953152E-1,-2.168749332E0
2.872297361E0,7.071718574E-2,-1.787283421E-1,-2.175500870E0
2.877328247E0,7.443630695E-2,-6.806540489E-2,-2.158360958E0
2.882359132E0,1.471920907E-1,3.815245628E-2,-2.069659710E0
2.887390017E0,2.215528488E-1,9.733819962E-2,-2.053092480E0
2.892420903E0,2.592073381E-1,1.673166752E-1,-2.060896397E0
2.897451788E0,3.083011210E-1,2.484915257E-1,-1.935480595E0
2.902482674E0,3.307851553E-1,3.123936653E-1,-1.748883724E0
2.907513559E0,3.031352162E-1,3.637950420E-1,-1.534662247E0
2.912544444E0,2.456980944E-1,3.737120628E-1,-1.369250298E0
2.917575330E0,2.077655196E-1,3.563694954E-1,-1.233427048E0
2.922606215E0,1.623139679E-1,3.450326920E-1,-1.141463280E0
2.927637101E0,1.055571139E-1,3.395481110E-1,-1.031136990E0
2.932667986E0,3.792262077E-2,3.540081978E-1,-8.832845688E-1
2.937698872E0,-2.163469791E-2,4.073598385E-1,-7.648248672E-1
2.942729757E0,-1.070872545E-1,4.805603027E-1,-6.996459961E-1
2.947760642E0,-1.137706935E-1,6.021633148E-1,-5.967597961E-1
2.952791528E0,2.878168225E-2,6.957242489E-1,-4.275388718E-1
2.957822413E0,1.949400008E-1,7.995526791E-1,-2.398433685E-1
2.962853299E0,3.076132238E-1,8.753139973E-1,-5.276393890E-2
2.967884184E0,3.287154138E-1,8.939266205E-1,1.434535980E-1
2.972915069E0,3.063091338E-1,9.173388481E-1,3.536968231E-1
2.977945955E0,2.929092348E-1,8.878018856E-1,5.159654617E-1
2.982976840E0,2.930708528E-1,8.100488186E-1,6.112890244E-1
2.988007726E0,3.061778247E-1,7.370378971E-1,6.970472336E-1
2.993038611E0,3.080762923E-1,6.785702705E-1,7.301435471E-1
2.998069497E0,2.554758489E-1,6.543216705E-1,8.203859329E-1
3.003100382E0,2.681094408E-1,6.071686745E-1,9.388694763E-1
3.008131267E0,3.175787032E-1,5.230574608E-1,1.128455162E0
3.013162153E0,3.951762617E-1,3.685438633E-1,1.255149841E0
3.018193038E0,4.395590425E-1,1.866817474E-1,1.409886360E0
3.023223924E0,4.655786157E-1,3.470635414E-2,1.659597397E0
3.028254809E0,5.067920089E-1,-4.478001595E-2,1.946910858E0
3.033285694E0,4.198556542E-1,-5.221962929E-2,2.257553101E0
3.038316580E0,1.813682318E-1,-1.213455200E-2,2.606015205E0
3.043347465E0,-1.404154301E-1,7.485198975E-2,2.820291519E0
3.048378351E0,-4.915325344E-1,2.272591591E-1,2.905520439E0
3.053409236E0,-7.326629162E-1,3.730640411E-1,2.861956596E0
3.058440122E0,-7.549297810E-1,5.027303696E-1,2.752006531E0
3.063471007E0,-6.227987409E-1,6.120131016E-1,2.566126823E0
3.068501892E0,-4.296430349E-1,7.205128670E-1,2.404777527E0
3.073532778E0,-2.778435647E-1,8.384842873E-1,2.262954712E0
3.078563663E0,-1.354918182E-1,9.757833481E-1,2.183605194E0
3.083594549E0,-8.152246475E-3,1.132449627E0,2.195318222E0
3.088625434E0,9.433415532E-2,1.265551567E0,2.235768318E0
3.093656319E0,2.150791287E-1,1.360671997E0,2.319309235E0
3.098687205E0,3.448787928E-1,1.336437702E0,2.484184265E0
3.103718090E0,4.268985391E-1,1.255039692E0,2.644268036E0
3.108748976E0,4.719321728E-1,1.125828266E0,2.809210777E0
3.113779861E0,5.244303942E-1,9.725329876E-1,2.955142021E0
3.118810747E0,6.096603870E-1,8.044917583E-1,3.101240158E0
3.123841632E0,6.431038976E-1,6.167869568E-1,3.223556519E0
3.128872517E0,6.023206711E-1,4.045300484E-1,3.317290306E0
3.133903403E0,5.503354669E-1,1.865086555E-1,3.358645439E0
3.138934288E0,4.732938409E-1,3.443336487E-2,3.371549606E0
3.143965174E0,4.524513483E-1,-1.333479881E-1,3.375254631E0
3.148996059E0,4.303730130E-1,-2.547328472E-1,3.345875740E0
3.154026944E0,4.024580717E-1,-3.540775776E-1,3.288356781E0
3.159057830E0,3.595784307E-1,-4.605307579E-1,3.174171448E0
3.164088715E0,3.210392594E-1,-5.266981125E-1,2.979649544E0
3.169119601E0,3.723401427E-1,-5.861976147E-1,2.719341278E0
3.174150486E0,4.978541136E-1,-5.861284733E-1,2.407672882E0
3.179181372E0,6.816011667E-1,-5.788033009E-1,2.145114899E0
3.184212257E0,8.601145744E-1,-5.783517361E-1,1.898148537E0
3.189243142E0,1.004148722E0,-6.181437969E-1,1.647645950E0
3.194274028E0,1.176031828E0,-6.790535450E-1,1.407978058E0
3.199304913E0,1.389928579E0,-7.611150742E-1,1.203078270E0
3.204335799E0,1.612381577E0,-8.500311375E-1,9.946861267E-1
3.209366684E0,1.819717646E0,-9.408936501E-1,7.588539124E-1
3.214397569E0,1.940969944E0,-1.024116039E0,4.860143661E-1
3.219428455E0,1.972138524E0,-1.094694853E0,1.617584229E-1
3.224459340E0,1.990604639E0,-1.152317047E0,-2.044439316E-1
3.229490226E0,1.958257914E0,-1.210790396E0,-5.840578079E-1
3.234521111E0,1.874970913E0,-1.231364012E0,-9.533376694E-1
3.239551997E0,1.740563869E0,-1.251681089E0,-1.360353470E0
3.244582882E0,1.598090410E0,-1.237722397E0,-1.762246132E0
3.249613767E0,1.509346962E0,-1.246262550E0,-2.173618793E0
3.254644653E0,1.459153414E0,-1.247807264E0,-2.527812004E0
3.259675538E0,1.398743868E0,-1.275066376E0,-2.806077480E0
3.264706424E0,1.251131654E0,-1.289183140E0,-3.042243481E0
3.269737309E0,1.040111303E0,-1.294565678E0,-3.188749790E0
3.274768194E0,7.894577980E-1,-1.243126392E0,-3.231534958E0
3.279799080E0,5.515235662E-1,-1.197101593E0,-3.137295246E0
3.284829965E0,3.072912097E-1,-1.151848078E0,-3.035292149E0
3.289860851E0,7.183456421E-2,-1.155492306E0,-2.920675755E0
3.294891736E0,-1.394717693E-1,-1.170374155E0,-2.783682346E0
3.299922622E0,-2.969813645E-1,-1.196943521E0,-2.571613312E0
3.304953507E0,-3.573113680E-1,-1.221794128E0,-2.293749809E0
3.309984392E0,-4.444806576E-1,-1.226422787E0,-2.050343990E0
3.315015278E0,-6.199571490E-1,-1.221315861E0,-1.874455929E0
3.320046163E0,-7.781445980E-1,-1.207247972E0,-1.756099224E0
3.325077049E0,-9.095450640E-1,-1.175194025E0,-1.714071274E0
3.330107934E0,-1.000602961E0,-1.120644569E0,-1.705066681E0
3.335138819E0,-1.105354667E0,-1.010206223E0,-1.719369888E0
3.340169705E0,-1.177502394E0,-8.821647167E-1,-1.737761021E0
3.345200590E0,-1.213559508E0,-7.651383877E-1,-1.812812328E0
3.350231476E0,-1.176169872E0,-6.397492886E-1,-1.882355213E0
3.355262361E0,-1.070587873E0,-5.059211254E-1,-1.960775852E0
3.360293247E0,-9.254768491E-1,-3.490035534E-1,-1.976496220E0
3.365324132E0,-7.689331770E-1,-1.930055618E-1,-1.982210636E0
3.370355017E0,-6.673653126E-1,-6.169390678E-2,-1.968458652E0
3.375385903E0,-5.913828611E-1,6.901478767E-2,-1.949701786E0
3.380416788E0,-5.213677287E-1,1.656997204E-1,-1.902081966E0
3.385447674E0,-4.617887735E-1,2.620186806E-1,-1.835275173E0
3.390478559E0,-4.364610016E-1,3.532893658E-1,-1.763700008E0
3.395509444E0,-3.830115497E-1,4.396142960E-1,-1.692191601E0
3.400540330E0,-3.252652884E-1,4.970009327E-1,-1.563339233E0
3.405571215E0,-1.962420195E-1,5.827732086E-1,-1.401092529E0
3.410602101E0,-2.451360226E-2,6.823399067E-1,-1.281923294E0
3.415632986E0,1.281674504E-1,7.955284119E-1,-1.157907963E0
3.420663872E0,2.811286449E-1,9.125978947E-1,-1.062462330E0
3.425694757E0,4.536700547E-1,1.019089222E0,-1.009846210E0
3.430725642E0,6.172658205E-1,1.115283728E0,-1.038372517E0
3.435756528E0,7.290048599E-1,1.191956520E0,-1.119380474E0
3.440787413E0,7.793232203E-1,1.259263754E0,-1.176539421E0
3.445818299E0,7.871525288E-1,1.293646574E0,-1.224360466E0
3.450849184E0,6.855853796E-1,1.262079000E0,-1.258255959E0
3.455880069E0,4.891780317E-1,1.198297262E0,-1.263981819E0
3.460910955E0,2.128811479E-1,1.083548307E0,-1.299131393E0
3.465941840E0,-4.764541984E-2,9.802942276E-1,-1.253788948E0
3.470972726E0,-2.449652404E-1,9.124543667E-1,-1.118504047E0
3.476003611E0,-3.272502422E-1,8.418371677E-1,-9.555792809E-1
3.481034497E0,-3.713829219E-1,7.443971634E-1,-7.458534241E-1
3.486065382E0,-3.867633343E-1,6.245267391E-1,-5.226812363E-1
3.491096267E0,-4.014568627E-1,5.151975155E-1,-3.528146744E-1
3.496127153E0,-4.054528773E-1,4.494755268E-1,-2.121171951E-1
3.501158038E0,-3.796900213E-1,4.699900150E-1,-3.822803497E-2
3.506188924E0,-3.204394579E-1,5.333325863E-1,1.833114624E-1
3.511219809E0,-2.046409994E-1,5.579524040E-1,3.617143631E-1
3.516250694E0,-5.695214868E-2,5.435969830E-1,4.972085953E-1
3.521281580E0,1.508924663E-1,5.284631252E-1,5.803575516E-1
3.526312465E0,3.425482810E-1,5.077877045E-1,6.542463303E-1
3.531343351E0,5.276733637E-1,4.484252930E-1,7.091817856E-1
3.536374236E0,6.679256558E-1,3.410868645E-1,7.690067291E-1
3.541405122E0,7.012014389E-1,2.195942402E-1,8.288097382E-1
3.546436007E0,5.372639894E-1,1.129975319E-1,9.362382889E-1
3.551466892E0,2.246039212E-1,-2.506256104E-3,1.048117638E0
3.556497778E0,-1.688348949E-1,-1.075949669E-1,1.145197868E0
3.561528663E0,-5.990087986E-1,-1.734988689E-1,1.236977577E0
3.566559549E0,-1.069988966E0,-1.573832035E-1,1.318712234E0
3.571590434E0,-1.533499479E0,-8.355903625E-2,1.361830711E0
3.576621319E0,-1.827706337E0,-4.858493805E-3,1.404745102E0
3.581652205E0,-1.849990845E0,5.931615829E-2,1.466818810E0
3.586683090E0,-1.560540318E0,8.535933495E-2,1.524138451E0
3.591713976E0,-1.072056055E0,8.788418770E-2,1.524140358E0
3.596744861E0,-5.339373350E-1,1.006083488E-1,1.538610458E0
3.601775747E0,-4.641962051E-2,1.999115944E-1,1.615424156E0
3.606806632E0,4.824231267E-1,3.376772404E-1,1.740223885E0
3.611837517E0,1.011027813E0,4.371521473E-1,1.850829124E0
3.616868403E0,1.445432663E0,4.552884102E-1,1.899412155E0
3.621899288E0,1.764013886E0,4.640293121E-1,1.881113052E0
3.626930174E0,1.849755526E0,4.541218281E-1,1.833979607E0
3.631961059E0,1.709663391E0,4.497292042E-1,1.762563705E0
3.636991944E0,1.427340031E0,4.274797440E-1,1.637770653E0
3.642022830E0,1.013833642E0,3.638362885E-1,1.511967659E0
3.647053715E0,4.653562307E-1,2.400219440E-1,1.337104797E0
3.652084601E0,-1.603295207E-1,8.036518097E-2,1.146544456E0
3.657115486E0,-7.537267208E-1,-3.349232674E-2,9.545869827E-1
3.662146372E0,-1.277648211E0,-1.013853550E-1,7.612638474E-1
3.667177257E0,-1.733777642E0,-1.327269077E-1,6.144914627E-1
3.672208142E0,-2.114344120E0,-1.609425545E-1,5.287084579E-1
3.677239028E0,-2.377986431E0,-2.007217407E-1,4.850206375E-1
3.682269913E0,-2.531392097E0,-2.475199699E-1,5.219030380E-1
3.687300799E0,-2.609914303E0,-2.972157001E-1,6.109733582E-1
3.692331684E0,-2.591130257E0,-3.314087391E-1,8.194952011E-1
3.697362569E0,-2.481467724E0,-3.365688324E-1,1.095106125E0
3.702393455E0,-2.343811274E0,-3.187193871E-1,1.447752953E0
3.707424340E0,-2.173224926E0,-2.790873051E-1,1.806000710E0
3.712455226E0,-1.935251236E0,-2.477016449E-1,2.098492622E0
3.717486111E0,-1.623960257E0,-1.874649525E-1,2.383002281E0
3.722516997E0,-1.190272331E0,-1.424539089E-1,2.607160568E0
3.727547882E0,-7.522636056E-1,-8.940482140E-2,2.675498009E0
3.732578767E0,-4.091784954E-1,-3.839421272E-2,2.640885353E0
3.737609653E0,-1.313134432E-1,-1.826620102E-2,2.474741936E0
3.742640538E0,8.197218180E-2,-4.869461060E-3,2.148431778E0
3.747671424E0,2.496673465E-1,1.198911667E-2,1.748052597E0
3.752702309E0,3.851482272E-1,5.241060257E-2,1.283012390E0
3.757733194E0,5.402071476E-1,1.081151962E-1,7.577915192E-1
3.762764080E0,7.377869487E-1,1.853811741E-1,2.150516510E-1
3.767794965E0,9.104347825E-1,2.185409069E-1,-2.643222809E-1
3.772825851E0,1.044035673E0,2.089190483E-1,-7.143659592E-1
3.777856736E0,1.081880093E0,1.481328011E-1,-1.135583878E0
3.782887622E0,1.010820031E0,8.348941803E-3,-1.485362053E0
3.787918507E0,8.463902473E-1,-1.809129715E-1,-1.811981201E0
3.792949392E0,6.327436566E-1,-4.144113064E-1,-2.096581936E0
3.797980278E0,3.993537426E-1,-6.295702457E-1,-2.315502644E0
3.803011163E0,1.705042720E-1,-8.453354836E-1,-2.459371567E0
3.808042049E0,-6.346023083E-2,-1.071303844E0,-2.552165985E0
3.813072934E0,-2.598733902E-1,-1.273974419E0,-2.560439110E0
3.818103819E0,-4.288754463E-1,-1.458611727E0,-2.517539978E0
3.823134705E0,-5.945414305E-1,-1.601886988E0,-2.495011330E0
3.828165590E0,-7.042582631E-1,-1.714255214E0,-2.516378403E0
3.833196476E0,-7.870882750E-1,-1.786887169E0,-2.504751205E0
3.838227361E0,-8.105678558E-1,-1.796680689E0,-2.507626534E0
3.843258247E0,-7.761453390E-1,-1.792070150E0,-2.510361671E0
3.848289132E0,-6.758912802E-1,-1.768633366E0,-2.589282036E0
3.853320017E0,-5.541332960E-1,-1.693253756E0,-2.677191734E0
3.858350903E0,-4.023634791E-1,-1.585203767E0,-2.759704590E0
3.863381788E0,-2.405965626E-1,-1.463773012E0,-2.822456360E0
3.868412674E0,-1.028982997E-1,-1.324301243E0,-2.870245934E0
3.873443559E0,-2.766655385E-2,-1.181158066E0,-2.960513592E0
3.878474444E0,2.852141857E-2,-1.067622185E0,-3.055056095E0
3.883505330E0,1.566892117E-1,-9.691064358E-1,-3.015285015E0
3.888536215E0,3.188523054E-1,-8.758234978E-1,-2.917981625E0
3.893567101E0,3.292651474E-1,-7.399373055E-1,-2.882799625E0
3.898597986E0,2.367410064E-1,-6.093642712E-1,-2.785324097E0
3.903628872E0,1.903046221E-1,-4.697885513E-1,-2.659106255E0
3.908659757E0,2.428622991E-1,-3.356649876E-1,-2.446767807E0
3.913690642E0,3.035041690E-1,-1.876568794E-1,-2.220221996E0
3.918721528E0,2.958469391E-1,-5.456805229E-2,-2.032061100E0
3.923752413E0,2.776595354E-1,9.709906578E-2,-1.872673035E0
3.928783299E0,2.539432347E-1,2.818219662E-1,-1.737297058E0
3.933814184E0,1.913369298E-1,5.044956207E-1,-1.578134537E0
3.938845069E0,1.234877110E-1,7.077939510E-1,-1.438296318E0
3.943875955E0,9.832325578E-2,8.919408321E-1,-1.298699856E0
3.948906840E0,1.586593240E-1,1.052565575E0,-1.154696465E0
3.953937726E0,2.759198248E-1,1.237805128E0,-1.030304909E0
3.958968611E0,4.739148915E-1,1.433507919E0,-8.442802429E-1
3.963999497E0,7.096186876E-1,1.601526499E0,-6.445655823E-1
3.969030382E0,1.169725776E0,1.636805534E0,-4.073143005E-1
3.974061267E0,1.658582568E0,1.620461226E0,-1.850719452E-1
3.979092153E0,1.327729583E0,1.853630543E0,-8.305263519E-2
3.984123038E0,1.180921555E0,2.043988943E0,3.390235901E-1
3.989153924E0,1.045714259E0,2.268118382E0,5.212106705E-1
3.994184809E0,9.896884561E-1,2.286674023E0,6.599283218E-1
3.999215694E0,8.834511042E-1,2.176434278E0,8.221912384E-1
4.004246580E0,7.417626381E-1,2.042593241E0,9.171552658E-1
4.009277465E0,6.176455021E-1,1.937699080E0,1.011878967E0
4.014308351E0,5.156562924E-1,1.885693550E0,1.115918159E0
4.019339236E0,3.730003238E-1,1.872176170E0,1.267545700E0
4.024370122E0,2.367080748E-1,1.873006582E0,1.433323860E0
4.029401007E0,1.107089520E-1,1.849922895E0,1.565437317E0
4.034431892E0,1.350596547E-2,1.764455557E0,1.668810844E0
4.039462778E0,-8.889691532E-2,1.678669214E0,1.705296516E0
4.044493663E0,-1.679831147E-1,1.563875914E0,1.756278992E0
4.049524549E0,-2.295914888E-1,1.429882765E0,1.855169296E0
4.054555434E0,-2.609201372E-1,1.267200708E0,2.006705284E0
4.059586319E0,-2.775660157E-1,1.104708672E0,2.119929314E0
4.064617205E0,-2.657346129E-1,9.710516930E-1,2.276217461E0
4.069648090E0,-2.684074938E-1,9.135704041E-1,2.456533432E0
4.074678976E0,-2.363350242E-1,9.125893116E-1,2.637057304E0
4.079709861E0,-2.199096531E-1,9.339692593E-1,2.813144684E0
4.084740747E0,-1.405300349E-1,9.580595493E-1,2.965773582E0
4.089771632E0,-7.756036520E-2,9.941740036E-1,3.042377472E0
4.094802778E0,-6.305597723E-2,1.032478571E0,3.057428360E0
4.099833924E0,-9.670005739E-2,1.096835375E0,3.039696693E0
4.104864913E0,-1.174538583E-1,1.158416748E0,3.051465034E0
4.109895799E0,-8.488537371E-2,1.179360628E0,3.083089828E0
4.114926684E0,-7.022857666E-3,1.155272245E0,3.144102097E0
4.119957569E0,8.020183444E-2,1.096312046E0,3.229580879E0
4.124988455E0,9.934103489E-2,9.883689880E-1,3.305994034E0
4.130019340E0,1.562907696E-1,8.650331497E-1,3.397251129E0
4.135050226E0,3.004412949E-1,6.973760128E-1,3.479479790E0
4.140081111E0,4.955213666E-1,5.235538483E-1,3.528779984E0
4.145111997E0,7.199376822E-1,2.860162258E-1,3.468657494E0
4.150142882E0,8.994866014E-1,4.215693474E-2,3.318310738E0
4.155173767E0,9.646243453E-1,-2.030587196E-1,3.053781509E0
4.160204653E0,8.837010860E-1,-4.064416885E-1,2.765950203E0
4.165235538E0,7.198016644E-1,-5.534858704E-1,2.416481972E0
4.170266424E0,5.206628442E-1,-6.439800262E-1,2.062769890E0
4.175297309E0,2.709244490E-1,-7.205612659E-1,1.723861694E0
4.180328194E0,1.211342216E-2,-7.924799919E-1,1.404503822E0
4.185359080E0,-2.145289928E-1,-8.786966801E-1,1.085579872E0
4.190389965E0,-3.868098259E-1,-9.358377457E-1,8.627080917E-1
4.195420851E0,-4.972357750E-1,-9.639866352E-1,7.119407654E-1
4.200451736E0,-5.764316916E-1,-1.015885592E0,6.428289413E-1
4.205482622E0,-5.880956054E-1,-1.053495169E0,5.788707733E-1
4.210513507E0,-5.431876183E-1,-1.110563993E0,5.488471985E-1
4.215544392E0,-3.951010406E-1,-1.158571959E0,5.193128586E-1
4.220575278E0,-1.540185064E-1,-1.192996264E0,5.094881058E-1
4.225606163E0,1.611442864E-1,-1.204436302E0,4.667940140E-1
4.230637049E0,5.083142519E-1,-1.159539700E0,4.152212143E-1
4.235667934E0,9.508411884E-1,-1.115863800E0,3.452596664E-1
4.240698819E0,1.432446957E0,-1.030321360E0,2.664861679E-1
4.245729705E0,1.892037153E0,-9.171781540E-1,1.740837097E-1
4.250760590E0,2.383308887E0,-8.192443848E-1,3.926467896E-2
4.255791476E0,2.902669668E0,-7.312734127E-1,-1.620321274E-1
4.260822361E0,3.384330988E0,-6.813738346E-1,-4.156503677E-1
4.265853247E0,3.705400229E0,-6.543879509E-1,-7.553844452E-1
4.270884132E0,3.838879108E0,-6.975317001E-1,-1.162332058E0
4.275915017E0,3.800592184E0,-7.715754509E-1,-1.589056015E0
4.280945903E0,3.625058651E0,-8.327603340E-1,-1.964169979E0
4.285976788E0,3.336441994E0,-9.138298035E-1,-2.273758888E0
4.291007674E0,2.930015087E0,-9.950988293E-1,-2.580331802E0
4.296038559E0,2.438832283E0,-1.052012205E0,-2.865029812E0
4.301069444E0,1.967669487E0,-1.088887453E0,-3.137632847E0
4.306100330E0,1.511433721E0,-1.086029530E0,-3.388815880E0
4.311131215E0,1.084173679E0,-1.057445526E0,-3.585242271E0
4.316162101E0,6.615374684E-1,-1.026739597E0,-3.707919598E0
4.321192986E0,2.284954488E-1,-9.793765545E-1,-3.752131939E0
4.326223872E0,-1.773164123E-1,-9.537813663E-1,-3.722580433E0
4.331254757E0,-5.472664833E-1,-9.550061226E-1,-3.652574539E0
4.336285642E0,-8.677405119E-1,-9.548201561E-1,-3.498787880E0
4.341316528E0,-1.163357735E0,-9.683258533E-1,-3.318284035E0
4.346347413E0,-1.434452057E0,-9.869494438E-1,-3.115367413E0
4.351378299E0,-1.590228319E0,-1.030689001E0,-2.903981686E0
4.356409184E0,-1.688281655E0,-1.081463575E0,-2.654949188E0
4.361440069E0,-1.752553940E0,-1.130690813E0,-2.406148911E0
4.366470955E0,-1.802341104E0,-1.174595833E0,-2.195436954E0
4.371501840E0,-1.847176909E0,-1.190291405E0,-2.027169704E0
4.376532726E0,-1.882477045E0,-1.169376612E0,-1.862649918E0
4.381563611E0,-1.875194311E0,-1.108057737E0,-1.715944290E0
4.386594497E0,-1.806999087E0,-1.045589209E0,-1.605925560E0
4.391625382E0,-1.717245579E0,-9.540801048E-1,-1.532404900E0
4.396656267E0,-1.587824941E0,-8.483524323E-1,-1.524035454E0
4.401687153E0,-1.486613393E0,-7.049014568E-1,-1.532938957E0
4.406718038E0,-1.390480042E0,-5.384449959E-1,-1.540015221E0
4.411748924E0,-1.271266937E0,-3.683066368E-1,-1.526221275E0
4.416779809E0,-1.120120287E0,-1.946437359E-1,-1.486881733E0
4.421810694E0,-9.708297253E-1,-1.745200157E-2,-1.455598354E0
4.426841580E0,-8.098348975E-1,1.345353127E-1,-1.351143360E0
4.431872465E0,-6.611401439E-1,2.852859497E-1,-1.173643112E0
4.436903351E0,-5.054419041E-1,4.205231667E-1,-1.023625374E0
4.441934236E0,-3.422061503E-1,5.449178219E-1,-8.722562790E-1
4.446965122E0,-1.560375690E-1,6.776380539E-1,-7.337818146E-1
4.451996007E0,2.556720376E-2,7.899992466E-1,-6.558847427E-1
4.457026892E0,1.894251555E-1,8.966553211E-1,-6.288805008E-1
4.462057778E0,3.699502945E-1,9.790003300E-1,-6.766643524E-1
4.467088663E0,5.822347403E-1,1.099961042E0,-7.801427841E-1
4.472119549E0,7.981160879E-1,1.246063948E0,-8.964223862E-1
4.477150434E0,9.939587116E-1,1.399111748E0,-1.040092468E0
4.482181319E0,1.117404103E0,1.531402588E0,-1.139677048E0
4.487212205E0,1.202162266E0,1.619884491E0,-1.243317127E0
4.492243090E0,1.253322005E0,1.670270443E0,-1.327390194E0
4.497273976E0,1.242042303E0,1.669224262E0,-1.325322628E0
4.502304861E0,1.187587380E0,1.655484915E0,-1.299561977E0
4.507335747E0,1.104810476E0,1.643783331E0,-1.264643192E0
4.512366632E0,9.991711974E-1,1.596279860E0,-1.206427097E0
4.517397517E0,8.568540812E-1,1.565904140E0,-1.086840630E0
4.522428403E0,7.688655853E-1,1.548034668E0,-9.299945831E-1
4.527459288E0,7.017513514E-1,1.475887537E0,-7.025871277E-1
4.532490174E0,6.071254015E-1,1.402177095E0,-4.430227280E-1
4.537521059E0,4.938106537E-1,1.283958435E0,-1.801004410E-1
4.542551944E0,3.854218125E-1,1.164330006E0,7.658672333E-2
4.547582830E0,3.348001540E-1,1.095809698E0,2.983589172E-1
4.552613715E0,3.856017888E-1,1.049541950E0,5.282983780E-1
4.557644549E0,4.617434442E-1,1.034966946E0,7.376928329E-1
4.562675382E0,5.349470377E-1,1.008898258E0,9.696121216E-1
4.567706215E0,5.862846375E-1,9.617817402E-1,1.176171303E0
4.572737049E0,6.063899398E-1,8.935883045E-1,1.400439262E0
4.577767882E0,5.901783705E-1,8.330903053E-1,1.675847054E0
4.582798715E0,5.615969896E-1,8.088254929E-1,2.102808952E0
4.587829549E0,4.250032306E-1,7.440350056E-1,2.561650276E0
4.592860382E0,9.020781517E-2,6.670501232E-1,2.975946426E0
4.597891215E0,-3.981609941E-1,5.722408295E-1,3.317333221E0
4.602922049E0,-9.239412546E-1,5.302915573E-1,3.586261749E0
4.607952882E0,-1.276252985E0,5.111935139E-1,3.816768646E0
4.612983715E0,-1.403744936E0,4.662010670E-1,3.999746323E0
4.618014549E0,-1.314151525E0,3.946075439E-1,4.145253181E0
4.623045382E0,-1.040177226E0,3.631577492E-1,4.234488487E0
4.628076215E0,-6.525184512E-1,4.146924019E-1,4.306011200E0
4.633107049E0,-1.972188950E-1,5.156354904E-1,4.331295013E0
4.638137882E0,3.435425460E-1,6.322607994E-1,4.286649704E0
4.643168715E0,8.409436941E-1,6.545462608E-1,4.143523216E0
4.648199549E0,1.287234068E0,5.777139664E-1,3.906862259E0
4.653230382E0,1.632035732E0,4.263558388E-1,3.595656395E0
4.658261215E0,1.858543873E0,2.870075703E-1,3.286311150E0
4.663292049E0,1.974038363E0,3.755254745E-1,2.949750900E0
4.668322882E0,1.981295824E0,3.153719902E-1,2.489534378E0
4.673353715E0,1.902098775E0,1.511173248E-1,2.182398796E0
4.678384549E0,1.604973316E0,7.493472099E-2,1.965397835E0
4.683415434E0,1.168194532E0,6.817412376E-2,1.656210899E0
4.688446319E0,7.222632766E-1,-1.074252129E-1,1.302182198E0
4.693477205E0,2.818996906E-1,-1.452052593E-1,1.027454376E0
4.698508090E0,-1.769449115E-1,-3.123583794E-1,6.354970932E-1
4.703538976E0,-5.452257395E-1,-4.072835445E-1,3.271732330E-1
4.708569861E0,-7.906125188E-1,-4.919056892E-1,4.020404816E-2
4.713600747E0,-9.676021338E-1,-5.901885033E-1,-1.295480728E-1
4.718631632E0,-1.135370851E0,-6.402392387E-1,-2.344913483E-1
4.723662517E0,-1.353318810E0,-6.189663410E-1,-2.119808197E-1
4.728693403E0,-1.575371981E0,-5.512127876E-1,-1.524972916E-1
4.733724288E0,-1.779450059E0,-4.569642544E-1,-7.950496674E-2
4.738755174E0,-1.890370846E0,-3.655657768E-1,-1.180171967E-2
4.743786059E0,-1.918800592E0,-3.016686440E-1,8.923053741E-2
4.748816944E0,-1.808140993E0,-2.372989655E-1,1.951742172E-1
4.753847830E0,-1.644934177E0,-1.828927994E-1,3.063507080E-1
4.758878715E0,-1.543930769E0,-1.248056889E-1,4.134254456E-1
4.763909601E0,-1.466515779E0,-8.302712440E-2,4.832029343E-1
4.768940486E0,-1.359438181E0,-7.722091675E-2,5.445690155E-1
4.773971372E0,-1.236445189E0,-9.838581085E-2,5.833501816E-1
4.779002257E0,-1.058738470E0,-1.182570457E-1,6.570787430E-1
4.784033142E0,-8.258063793E-1,-2.041094303E-1,6.892538071E-1
4.789064028E0,-5.415670872E-1,-3.224623203E-1,6.942348480E-1
4.794094913E0,-2.144980729E-1,-4.350969791E-1,6.241836548E-1
4.799125799E0,5.143576860E-2,-5.320892334E-1,4.694099426E-1
4.804156684E0,1.955364347E-1,-6.178634167E-1,2.824029922E-1
4.809187569E0,2.767564058E-1,-7.255220413E-1,3.906917572E-2
4.814218455E0,3.006596267E-1,-8.065478802E-1,-2.607984543E-1
4.819249340E0,3.058768511E-1,-8.792490959E-1,-5.552711487E-1
4.824280226E0,3.064416051E-1,-9.426674843E-1,-8.494567871E-1
4.829311111E0,3.018539846E-1,-9.912071228E-1,-1.119694710E0
4.834341997E0,2.532181144E-1,-1.038604498E0,-1.370971203E0
4.839372882E0,1.219376624E-1,-1.103501558E0,-1.579532623E0
4.844403767E0,-4.483547807E-2,-1.199934959E0,-1.750260353E0
4.849434653E0,-2.814270258E-1,-1.346910715E0,-1.768397331E0
4.854465538E0,-5.170962214E-1,-1.520867109E0,-1.686532021E0
4.859496424E0,-6.854524016E-1,-1.717519403E0,-1.638472557E0
4.864527309E0,-7.629619837E-1,-1.918254733E0,-1.652659416E0
4.869558194E0,-8.550844789E-1,-2.075951576E0,-1.609188080E0
4.874589080E0,-8.754856586E-1,-2.177179813E0,-1.613030434E0
4.879619965E0,-7.616507411E-1,-2.241864681E0,-1.678211212E0
4.884650851E0,-6.139217019E-1,-2.246668339E0,-1.775759697E0
4.889681736E0,-4.037154615E-1,-2.192337513E0,-1.886246681E0
4.894712622E0,-1.411857456E-1,-2.098443985E0,-2.009510517E0
4.899743507E0,1.205563769E-1,-1.946115613E0,-2.164578915E0
4.904774392E0,3.617658913E-1,-1.783346653E0,-2.293983936E0
4.909805278E0,6.340949535E-1,-1.605305433E0,-2.450392723E0
4.914836163E0,8.553487062E-1,-1.411887646E0,-2.600352287E0
4.919867049E0,1.015281200E0,-1.226452589E0,-2.777581215E0
4.924897934E0,1.046483278E0,-1.034364700E0,-2.963038921E0
4.929928819E0,9.822313786E-1,-8.398990631E-1,-3.113882542E0
4.934959705E0,8.316717744E-1,-6.425006390E-1,-3.230391979E0
4.939990590E0,6.138412952E-1,-4.704728127E-1,-3.327120781E0
4.945021476E0,4.101756215E-1,-2.992913723E-1,-3.423453331E0
4.950052361E0,2.401139885E-1,-1.330642700E-1,-3.486175537E0
4.955083247E0,1.375573277E-1,5.279374123E-2,-3.520373344E0
4.960114132E0,3.576536477E-2,2.253508568E-1,-3.511967659E0
4.965145017E0,-2.653835714E-2,3.663482666E-1,-3.475712776E0
4.970175903E0,-7.758449018E-2,5.098195076E-1,-3.430991173E0
4.975206788E0,-1.165769845E-1,6.752114296E-1,-3.373167038E0
4.980237674E0,-1.812804043E-1,8.198714256E-1,-3.254619598E0
4.985268559E0,-2.183325291E-1,9.680566788E-1,-3.104266644E0
4.990299444E0,-2.131103277E-1,1.129315853E0,-2.941289425E0
4.995330330E0,-1.316800416E-1,1.318068027E0,-2.698799610E0
5.000361215E0,1.189219207E-2,1.543694496E0,-2.372062683E0
5.005392101E0,2.278307974E-1,1.753349543E0,-1.975452900E0
5.010422986E0,4.593622684E-1,1.932506800E0,-1.628543377E0
5.015453872E0,6.310243011E-1,2.066561460E0,-1.307239532E0
5.020484757E0,7.298882008E-1,2.160103559E0,-1.078373432E0
5.025515642E0,7.477643490E-1,2.194094419E0,-9.227385521E-1
5.030546528E0,6.761170030E-1,2.201993704E0,-8.067417145E-1
5.035577413E0,5.010511279E-1,2.136166334E0,-6.969251633E-1
5.040608299E0,3.130450547E-1,2.035131216E0,-6.315956116E-1
5.045639184E0,1.300552785E-1,1.894416809E0,-5.486049652E-1
5.050670069E0,-2.152483910E-2,1.747957468E0,-3.620252609E-1
5.055700955E0,-1.489933282E-1,1.605729103E0,-5.299091339E-2
5.060731840E0,-2.210588306E-1,1.420110941E0,3.495950699E-1
5.065762726E0,-2.394128144E-1,1.186289787E0,7.978630066E-1
5.070793611E0,-2.092534006E-1,9.373786449E-1,1.291976929E0
5.075824497E0,-1.726888120E-1,6.822438240E-1,1.837016106E0
5.080855382E0,-1.185560003E-1,4.534640312E-1,2.366388321E0
5.085886267E0,-1.117104366E-1,2.787425518E-1,2.899679184E0
5.090917153E0,-2.315623164E-1,1.618363857E-1,3.422947884E0
5.095948038E0,-4.522543848E-1,1.111240387E-1,3.836230278E0
5.100978924E0,-6.863629818E-1,1.206657887E-1,4.135302544E0
5.106009809E0,-8.810808659E-1,1.701674461E-1,4.344625473E0
5.111040694E0,-9.806007743E-1,2.396888733E-1,4.531515121E0
5.116071580E0,-1.026281953E0,3.381941319E-1,4.696138382E0
5.121102465E0,-9.792835116E-1,4.701406956E-1,4.900674820E0
5.126133351E0,-8.247458339E-1,6.686780453E-1,5.087626457E0
5.131164236E0,-5.850163102E-1,8.667433262E-1,5.232968330E0
5.136195122E0,-2.665907145E-1,1.040222883E0,5.374998093E0
5.141226007E0,1.497473717E-1,1.117421865E0,5.461118698E0
5.146256892E0,6.413934231E-1,1.088864088E0,5.477146149E0
5.151287778E0,1.119911075E0,9.597187042E-1,5.451896667E0
5.156318663E0,1.506530404E0,7.975537777E-1,5.337541580E0
5.161349549E0,1.761367083E0,6.171808243E-1,5.181956291E0
5.166380434E0,1.901864409E0,4.288063049E-1,4.951531410E0
5.171411319E0,1.916510582E0,2.521891594E-1,4.650905609E0
5.176442205E0,1.874644518E0,4.026865959E-2,4.255912781E0
5.181473090E0,1.773497701E0,-2.061245441E-1,3.794992447E0
5.186503976E0,1.585718870E0,-5.005939007E-1,3.301361084E0
5.191534861E0,1.311855555E0,-8.087882996E-1,2.793822289E0
5.196565747E0,9.132884741E-1,-1.120352030E0,2.310339928E0
5.201596632E0,4.654994905E-1,-1.377460480E0,1.884204865E0
5.206627517E0,9.763285518E-3,-1.546376467E0,1.491350174E0
5.211658403E0,-3.558848202E-1,-1.646172285E0,1.165193558E0
5.216689288E0,-5.959173441E-1,-1.691279292E0,9.200439453E-1
5.221720174E0,-6.750424504E-1,-1.691342115E0,7.893066406E-1
5.226751059E0,-6.103225946E-1,-1.622817993E0,7.777481079E-1
5.231781944E0,-4.324168563E-1,-1.519876480E0,8.710994720E-1
5.236812830E0,-1.182243079E-1,-1.397952557E0,1.017019272E0
5.241843715E0,3.132803440E-1,-1.296415091E0,1.182387352E0
5.246874601E0,8.772590756E-1,-1.211640120E0,1.281570435E0
5.251905486E0,1.464473844E0,-1.149179459E0,1.377156258E0
5.256936372E0,2.032842875E0,-1.042747021E0,1.383373260E0
5.261967257E0,2.612246990E0,-9.310207367E-1,1.310076714E0
5.266998142E0,3.113671541E0,-8.666436672E-1,1.095225334E0
5.272029028E0,3.539121628E0,-8.298804760E-1,7.579078674E-1
5.277059913E0,3.862027168E0,-8.392813206E-1,3.793325424E-1
5.282090799E0,4.022221088E0,-8.843290806E-1,-2.603530884E-3
5.287121684E0,3.945071220E0,-9.354646206E-1,-4.122047424E-1
5.292152569E0,3.679959774E0,-1.006174088E0,-8.641986847E-1
5.297183455E0,3.285659552E0,-1.104969978E0,-1.425968170E0
5.302214340E0,2.767722130E0,-1.154113293E0,-2.050077915E0
5.307245226E0,2.169630051E0,-1.176571131E0,-2.617309570E0
5.312276111E0,1.572103024E0,-1.137898922E0,-3.132891178E0
5.317306997E0,1.003037214E0,-1.075684786E0,-3.616258621E0
5.322337882E0,5.045640469E-1,-1.003774405E0,-4.043678761E0
5.327368767E0,9.458190948E-2,-9.168801308E-1,-4.415345192E0
5.332399653E0,-2.714358866E-1,-8.530697823E-1,-4.693058491E0
5.337430538E0,-5.662177801E-1,-7.978134155E-1,-4.934306622E0
5.342461424E0,-8.248458505E-1,-7.701785564E-1,-5.100839615E0
5.347492309E0,-1.024761796E0,-7.463219166E-1,-5.178323746E0
5.352523194E0,-1.196099758E0,-7.169201374E-1,-5.205018044E0
5.357554080E0,-1.315936089E0,-7.206320763E-1,-5.195175171E0
5.362584965E0,-1.432817459E0,-7.149155140E-1,-5.129495621E0
5.367615851E0,-1.590369821E0,-7.529809475E-1,-4.993478775E0
5.372646736E0,-1.731687069E0,-8.211381435E-1,-4.801295757E0
5.377677622E0,-1.871559858E0,-8.867244720E-1,-4.557487488E0
5.382708507E0,-1.986331463E0,-9.936611652E-1,-4.280933380E0
5.387739392E0,-2.076278687E0,-1.085588455E0,-3.980850697E0
5.392770278E0,-2.155755281E0,-1.201629877E0,-3.695236683E0
5.397801163E0,-2.177179575E0,-1.270924807E0,-3.352047920E0
5.402832049E0,-2.169364452E0,-1.313603163E0,-3.032356739E0
5.407862934E0,-2.127549171E0,-1.335434914E0,-2.726262569E0
5.412893819E0,-2.018425465E0,-1.313416958E0,-2.462185860E0
5.417924705E0,-1.865855694E0,-1.267438889E0,-2.254209518E0
5.422955590E0,-1.684181452E0,-1.174053431E0,-2.087810040E0
5.427986476E0,-1.483258724E0,-1.081403494E0,-1.934228420E0
5.433017361E0,-1.301912069E0,-9.370450974E-1,-1.769578457E0
5.438048247E0,-1.083051324E0,-7.552814484E-1,-1.627461433E0
5.443079132E0,-8.414523602E-1,-5.886180401E-1,-1.531877518E0
5.448110017E0,-6.684864759E-1,-4.222452641E-1,-1.416034698E0
5.453140903E0,-4.783041477E-1,-3.083348274E-1,-1.299267769E0
5.458171788E0,-2.943850160E-1,-2.080793381E-1,-1.239062309E0
5.463202674E0,-1.540611982E-1,-1.352353096E-1,-1.187593937E0
5.468233559E0,-8.935517073E-2,-4.603886604E-2,-1.207094193E0
5.473264444E0,-1.083814502E-1,7.535696030E-3,-1.206679344E0
5.478295330E0,-1.285886168E-1,8.834338188E-2,-1.234309196E0
5.483326215E0,-1.395006776E-1,1.587924957E-1,-1.242307663E0
5.488357101E0,-1.649174690E-1,2.676959038E-1,-1.254998207E0
5.493387986E0,-2.096974850E-1,3.821640015E-1,-1.243963242E0
5.498418872E0,-2.457878590E-1,5.220425129E-1,-1.228736877E0
5.503449757E0,-1.873879433E-1,6.879222393E-1,-1.185712814E0
5.508480642E0,-2.047801018E-2,8.565392494E-1,-1.091335773E0
5.513511528E0,1.735008955E-1,1.052190065E0,-8.980240822E-1
5.518542413E0,3.757040501E-1,1.246376514E0,-6.059885025E-1
5.523573299E0,5.298087001E-1,1.424792528E0,-2.966060638E-1
5.528604184E0,6.846088171E-1,1.587325096E0,4.932880402E-2
5.533635069E0,7.885233164E-1,1.719278336E0,3.698024750E-1
5.538665955E0,8.141497374E-1,1.844267845E0,6.698169708E-1
5.543696840E0,7.915155888E-1,1.914091825E0,9.161176682E-1
5.548727726E0,7.456932664E-1,1.938041687E0,1.123284340E0
5.553758611E0,6.630439758E-1,1.915781736E0,1.272404671E0
5.558789497E0,5.436130166E-1,1.866244316E0,1.358851433E0
5.563820382E0,4.015245438E-1,1.861143351E0,1.401829720E0
5.568851267E0,2.500227392E-1,1.885975599E0,1.497031212E0
5.573882153E0,1.303822398E-1,1.931041956E0,1.591754913E0
5.578913038E0,2.654555440E-2,1.967627525E0,1.700276375E0
5.583943924E0,-5.823409557E-2,1.985996008E0,1.784333229E0
5.588974809E0,-1.536838412E-1,1.962073088E0,1.867908478E0
5.594005694E0,-2.653874159E-1,1.919778585E0,1.994025230E0
5.599036580E0,-3.888054788E-1,1.863631487E0,2.177092552E0
5.604067465E0,-5.190094709E-1,1.793496132E0,2.397984505E0
5.609098351E0,-6.790780425E-1,1.751897335E0,2.633015633E0
5.614129236E0,-9.347643852E-1,1.704961061E0,2.877593040E0
5.619160122E0,-1.227824450E0,1.647101641E0,3.074695587E0
5.624191007E0,-1.424842119E0,1.544429064E0,3.281923294E0
5.629221892E0,-1.441458702E0,1.434788942E0,3.508948326E0
5.634252778E0,-1.241478324E0,1.293931246E0,3.736676216E0
5.639283663E0,-8.893196583E-1,1.169546127E0,3.950746536E0
5.644314549E0,-3.629214168E-1,1.085386276E0,4.165534019E0
5.649345434E0,2.175823897E-1,1.032016039E0,4.357082367E0
5.654376319E0,7.187449932E-1,1.000010729E0,4.535003662E0
5.659407205E0,1.103907228E0,9.178047180E-1,4.694577217E0
5.664438090E0,1.365959048E0,8.192000389E-1,4.711513519E0
5.669468976E0,1.527241707E0,6.660513878E-1,4.638675690E0
5.674499861E0,1.557377458E0,4.825561047E-1,4.466575623E0
5.679530747E0,1.478518128E0,2.691569328E-1,4.171254158E0
5.684561632E0,1.250012875E0,5.498671532E-2,3.786128998E0
5.689592517E0,8.734251261E-1,-1.594491005E-1,3.382768631E0
5.694623403E0,4.160881042E-1,-3.401615620E-1,2.937010765E0
5.699654288E0,-3.662277013E-3,-3.719458580E-1,2.534749985E0
5.704685174E0,-2.969166636E-1,-4.266309738E-1,2.094383240E0
5.709716059E0,-5.138603449E-1,-6.613390446E-1,1.663476944E0
5.714746944E0,-7.186864614E-1,-8.557615280E-1,1.351960182E0
5.719777830E0,-8.892144561E-1,-9.769134521E-1,1.054653168E0
5.724808767E0,-1.045785904E0,-1.063730478E0,7.717809677E-1
5.729839705E0,-1.146064639E0,-1.178577185E0,4.364242554E-1
5.734870642E0,-1.166866302E0,-1.264077425E0,1.538648605E-1
5.739901580E0,-1.147112846E0,-1.291618109E0,-9.031009674E-2
5.744932517E0,-1.135031223E0,-1.232665300E0,-2.722148895E-1
5.749963455E0,-1.125856638E0,-1.125533342E0,-4.254360199E-1
5.754994392E0,-1.110147595E0,-1.018290043E0,-5.021076202E-1
5.760025330E0,-1.035118222E0,-8.728141785E-1,-5.453014374E-1
5.765056267E0,-9.052970409E-1,-7.467262745E-1,-5.836629868E-1
5.770087205E0,-7.540041208E-1,-6.448214054E-1,-5.454339981E-1
5.775118142E0,-5.902624726E-1,-5.624241829E-1,-5.310630798E-1
5.780149080E0,-4.179944992E-1,-5.090699196E-1,-5.261545181E-1
5.785180017E0,-2.411075979E-1,-4.558844566E-1,-5.403108597E-1
5.790210955E0,-8.247186244E-2,-4.265401363E-1,-5.640392303E-1
5.795241892E0,1.578095555E-2,-4.208686352E-1,-6.069478989E-1
5.800272778E0,1.453794688E-1,-4.335806370E-1,-6.644515991E-1
5.805303663E0,2.542751729E-1,-4.690070152E-1,-7.319488525E-1
5.810334549E0,3.430165350E-1,-4.933071136E-1,-8.000192642E-1
5.815365434E0,3.353474140E-1,-5.253810883E-1,-8.496437073E-1
5.820396267E0,2.841234803E-1,-5.936737061E-1,-9.335551262E-1
5.825427101E0,2.088189721E-1,-6.836423874E-1,-1.018287182E0
5.830457934E0,8.549011499E-2,-7.475273609E-1,-1.084641933E0
5.835488767E0,-7.144418359E-2,-8.475763798E-1,-1.170845985E0
5.840519601E0,-2.286681682E-1,-9.600214958E-1,-1.267186165E0
5.845550434E0,-4.012041986E-1,-1.051519871E0,-1.363986969E0
5.850581267E0,-5.564959049E-1,-1.084133625E0,-1.446745872E0
5.855612101E0,-6.573127508E-1,-1.115537643E0,-1.524947166E0
5.860642934E0,-6.947944164E-1,-1.136372805E0,-1.655889988E0
5.865673767E0,-6.506211758E-1,-1.132419348E0,-1.739040852E0
5.870704601E0,-5.924832821E-1,-1.142417669E0,-1.755146503E0
5.875735434E0,-5.066629648E-1,-1.200374365E0,-1.775809765E0
5.880766267E0,-3.886241317E-1,-1.253925085E0,-1.858303547E0
5.885797101E0,-2.625617385E-1,-1.317857265E0,-1.906734943E0
5.890827934E0,-1.287475228E-1,-1.363904953E0,-1.954458714E0
5.895858767E0,3.201919794E-2,-1.368453026E0,-2.015717983E0
5.900889601E0,1.958233118E-1,-1.384380817E0,-2.090415478E0
5.905920434E0,3.295911551E-1,-1.411787033E0,-2.178471565E0
5.910951267E0,4.001328051E-1,-1.426728725E0,-2.294219017E0
5.915982101E0,4.460141659E-1,-1.410076618E0,-2.466316223E0
5.921012934E0,4.435335696E-1,-1.395089626E0,-2.661324024E0
5.926043767E0,3.881316185E-1,-1.347947121E0,-2.869790554E0
5.931074601E0,3.275112510E-1,-1.268409014E0,-3.082281113E0
5.936105434E0,2.516165376E-1,-1.160776377E0,-3.270381927E0
5.941136267E0,1.072520018E-1,-1.024768829E0,-3.424768448E0
5.946167101E0,-2.963149548E-2,-8.935389519E-1,-3.545727253E0
5.951197986E0,-1.887167692E-1,-7.859075069E-1,-3.561815739E0
5.956228872E0,-3.756327629E-1,-6.873619556E-1,-3.511597633E0
5.961259757E0,-5.864354372E-1,-5.692031384E-1,-3.385702133E0
5.966290642E0,-7.306362391E-1,-4.600419998E-1,-3.270416260E0
5.971321528E0,-8.561035991E-1,-3.692679405E-1,-3.113199234E0
5.976352413E0,-9.144650698E-1,-3.015449047E-1,-2.918868542E0
5.981383299E0,-8.425645828E-1,-2.234137058E-1,-2.711242199E0
5.986414184E0,-6.631463170E-1,-1.398074627E-1,-2.509253502E0
5.991445069E0,-4.558509588E-1,-2.680015564E-2,-2.303148270E0
5.996475955E0,-2.480901480E-1,8.666849136E-2,-2.087920189E0
6.001506840E0,-5.805486441E-2,2.389259338E-1,-1.877867222E0
6.006537726E0,1.435537934E-1,4.250707626E-1,-1.711159229E0
6.011568611E0,3.380134106E-1,6.451640129E-1,-1.568624020E0
6.016599497E0,4.969350696E-1,8.658938408E-1,-1.450304031E0
6.021630382E0,5.868591070E-1,1.073200703E0,-1.332390785E0
6.026661267E0,5.452841520E-1,1.224507809E0,-1.152954102E0
6.031692153E0,3.287474513E-1,1.301112175E0,-9.648900032E-1
6.036723038E0,-1.049011946E-2,1.322506428E0,-7.970685959E-1
6.041753924E0,-4.151566625E-1,1.341380596E0,-5.538349152E-1
6.046784809E0,-7.755269408E-1,1.324162483E0,-3.022108078E-1
6.051815694E0,-1.058309078E0,1.275284290E0,-6.594085693E-2
6.056846580E0,-1.153592229E0,1.223324299E0,1.885576248E-1
6.061877465E0,-1.100211382E0,1.201407194E0,4.948759079E-1
6.066908351E0,-1.013568044E0,1.199525595E0,7.813587189E-1
6.071939236E0,-8.700212240E-1,1.197981834E0,1.005205154E0
6.076970122E0,-6.936982274E-1,1.187103510E0,1.176093102E0
6.082001007E0,-5.424284935E-1,1.185718775E0,1.351569176E0
6.087031892E0,-4.069157243E-1,1.145762444E0,1.603429794E0
6.092062778E0,-3.161970973E-1,1.110079527E0,1.845550537E0
6.097093663E0,-2.846519947E-1,1.097627401E0,2.125825882E0
6.102124549E0,-2.787117362E-1,1.069795847E0,2.406075478E0
6.107155434E0,-3.503820896E-1,1.035850286E0,2.676918983E0
6.112186319E0,-3.794234991E-1,1.000348091E0,2.914601326E0
6.117217205E0,-3.507032394E-1,9.390645027E-1,3.119370461E0
6.122248090E0,-3.543254137E-1,8.804700375E-1,3.243624687E0
6.127278976E0,-4.703757167E-1,8.770575523E-1,3.306750298E0
6.132309861E0,-7.736496925E-1,9.523456097E-1,3.280421257E0
6.137340747E0,-1.162923336E0,1.096256971E0,3.164976120E0
6.142371632E0,-1.466978908E0,1.308500528E0,2.984414101E0
6.147402517E0,-1.622256041E0,1.493645906E0,2.810079575E0
6.152433403E0,-1.642833114E0,1.618545294E0,2.693963051E0
6.157464288E0,-1.498784184E0,1.688232183E0,2.592479706E0
6.162495174E0,-1.336592555E0,1.789090872E0,2.553016663E0
6.167526059E0,-1.148971915E0,1.863894463E0,2.613449097E0
6.172556944E0,-8.416953087E-1,1.869971037E0,2.768670082E0
6.177587830E0,-2.908575535E-1,1.836486101E0,2.985058784E0
6.182618715E0,4.179332554E-1,1.749191523E0,3.368041992E0
6.187649601E0,1.224935412E0,1.603137255E0,3.779336929E0
6.192680486E0,2.086328745E0,1.402684689E0,4.090588570E0
6.197711372E0,2.796378374E0,1.176243782E0,4.297813416E0
6.202742257E0,3.273769855E0,9.285421371E-1,4.353708267E0
6.207773142E0,3.547154903E0,6.356427670E-1,4.229968071E0
6.212804028E0,3.605855942E0,3.601913452E-1,3.921863556E0
6.217834913E0,3.471711397E0,1.171727180E-1,3.477058411E0
6.222865799E0,3.117452145E0,-1.116185188E-1,2.971662521E0
6.227896684E0,2.552621126E0,-2.727251053E-1,2.448241234E0
6.232927569E0,1.871348143E0,-4.083430767E-1,1.906244278E0
6.237958455E0,1.152122617E0,-5.176682472E-1,1.373879433E0
6.242989340E0,5.059593916E-1,-6.191270351E-1,9.032773972E-1
6.248020226E0,2.948015928E-2,-7.219884396E-1,5.227851868E-1
6.253051111E0,-2.762298286E-1,-8.166174889E-1,2.608251572E-1
6.258081997E0,-4.242261052E-1,-8.698530197E-1,1.507349014E-1
6.263112882E0,-3.694388568E-1,-8.874464035E-1,2.165555954E-1
6.268143767E0,-1.330104768E-1,-8.895068169E-1,4.441003799E-1
6.273174653E0,2.512198091E-1,-9.300580025E-1,7.142877579E-1
6.278205538E0,7.267590165E-1,-1.029521465E0,9.034376144E-1
6.283236424E0,1.290860176E0,-1.179308176E0,1.021844864E0
6.288267309E0,1.878400445E0,-1.327576637E0,1.089236259E0
6.293298194E0,2.462862968E0,-1.436437130E0,1.048565865E0
6.298329080E0,2.912487745E0,-1.558267117E0,8.425245285E-1
6.303359965E0,3.153002977E0,-1.692269564E0,4.901161194E-1
6.308390851E0,3.176925898E0,-1.842302084E0,2.933692932E-2
6.313421736E0,3.081624508E0,-1.954490662E0,-4.685869217E-1
6.318452622E0,2.968643904E0,-2.003715038E0,-9.038572311E-1
6.323483507E0,2.829265118E0,-2.017684460E0,-1.334547043E0
6.328514392E0,2.630626678E0,-2.048069000E0,-1.789926052E0
6.333545278E0,2.306372166E0,-2.141774178E0,-2.222665787E0
6.338576163E0,1.856961727E0,-2.264517784E0,-2.642782688E0
6.343607049E0,1.310665846E0,-2.386916876E0,-2.998023510E0
6.348637934E0,6.999790072E-1,-2.426960707E0,-3.284014702E0
6.353668819E0,1.241918653E-1,-2.403547049E0,-3.462698936E0
6.358699705E0,-4.319489598E-1,-2.321497679E0,-3.610690594E0
6.363730590E0,-8.929699659E-1,-2.190561771E0,-3.665729046E0
6.368761476E0,-1.187894702E0,-2.035079002E0,-3.661151409E0
6.373792361E0,-1.307980061E0,-1.855691671E0,-3.591876507E0
6.378823247E0,-1.344741702E0,-1.657876968E0,-3.481503487E0
6.383854132E0,-1.399075627E0,-1.471249104E0,-3.329591751E0
6.388885017E0,-1.428131223E0,-1.320649385E0,-3.154822350E0
6.393915903E0,-1.427281380E0,-1.183065653E0,-3.018910885E0
6.398946788E0,-1.406134844E0,-1.088122129E0,-2.911779881E0
6.403977674E0,-1.360040188E0,-9.984073639E-1,-2.789925098E0
6.409008559E0,-1.341931224E0,-9.290714264E-1,-2.662564754E0
6.414039444E0,-1.380984783E0,-8.808033466E-1,-2.543758392E0
6.419070330E0,-1.453960299E0,-8.399524689E-1,-2.428439140E0
6.424101215E0,-1.528220177E0,-8.117344379E-1,-2.326042175E0
6.429132101E0,-1.604567528E0,-7.679841518E-1,-2.245963097E0
6.434162986E0,-1.669476032E0,-7.328000069E-1,-2.192978859E0
6.439193872E0,-1.742834806E0,-7.160050869E-1,-2.157474041E0
6.444224757E0,-1.811151743E0,-7.223877907E-1,-2.110824108E0
6.449255642E0,-1.903763890E0,-7.039878368E-1,-2.057960987E0
6.454286528E0,-2.006686449E0,-6.704401970E-1,-2.003728390E0
6.459317413E0,-2.115309477E0,-6.263535023E-1,-1.948255062E0
6.464348299E0,-2.239127398E0,-5.954632759E-1,-1.886857510E0
6.469379184E0,-2.277197838E0,-5.059192181E-1,-1.805214405E0
6.474410069E0,-2.248202324E0,-4.149630070E-1,-1.732098103E0
6.479440955E0,-2.065432549E0,-2.985439301E-1,-1.700977802E0
6.484471840E0,-1.790446639E0,-1.466650963E-1,-1.683233738E0
6.489502726E0,-1.513716102E0,2.745628357E-3,-1.669390202E0
6.494533611E0,-1.230141997E0,1.404535770E-1,-1.664320469E0
6.499564497E0,-8.871046901E-1,3.195109367E-1,-1.601215363E0
6.504595382E0,-4.893176258E-1,5.163803101E-1,-1.465951920E0
6.509626267E0,-1.227093339E-1,6.978874207E-1,-1.306550026E0
6.514657153E0,1.941231340E-1,8.500649929E-1,-1.204456329E0
6.519688038E0,4.619971514E-1,9.828553200E-1,-1.131014824E0
6.524718924E0,7.153700590E-1,1.096714973E0,-1.052868366E0
6.529749809E0,9.217666388E-1,1.201519966E0,-9.557852745E-1
6.534780694E0,1.029237270E0,1.288178444E0,-8.495669365E-1
6.539811580E0,9.858791232E-1,1.337989807E0,-7.631206512E-1
6.544842465E0,8.782942295E-1,1.389659882E0,-6.679372787E-1
6.549873351E0,6.970373988E-1,1.424365997E0,-5.498619080E-1
6.554904236E0,4.849021137E-1,1.499925137E0,-3.948068619E-1
6.559935122E0,3.181464672E-1,1.578296185E0,-2.316713333E-1
6.564966007E0,1.770902276E-1,1.635746002E0,-1.754188538E-2
6.569996892E0,9.503512084E-2,1.715244293E0,2.427616119E-1
6.575027778E0,5.277575552E-2,1.797492504E0,5.253257751E-1
6.580058663E0,6.988374889E-2,1.829506397E0,7.776927948E-1
6.585089549E0,9.864165634E-2,1.844408512E0,1.047918320E0
6.590120434E0,8.178211749E-2,1.822813511E0,1.283506393E0
6.595152101E0,-1.894087344E-2,1.764344692E0,1.518177032E0
6.600182882E0,-1.606094986E-1,1.702052593E0,1.752158165E0
6.605213663E0,-2.866004705E-1,1.626045227E0,2.004730225E0
6.610244444E0,-3.738415241E-1,1.574125767E0,2.266525269E0
6.615275226E0,-4.137855172E-1,1.521975994E0,2.528134346E0
6.620306007E0,-4.120768607E-1,1.478734493E0,2.789748192E0
6.625336788E0,-4.026046991E-1,1.415175915E0,3.022908211E0
6.630367569E0,-4.044667482E-1,1.378774643E0,3.208697319E0
6.635398351E0,-4.218948483E-1,1.383513927E0,3.352115631E0
6.640429132E0,-4.683206677E-1,1.424369335E0,3.429401398E0
6.645459913E0,-5.663414598E-1,1.477097511E0,3.440784454E0
6.650490694E0,-6.769889593E-1,1.493661880E0,3.367320061E0
6.655521476E0,-7.529197335E-1,1.421352386E0,3.271354675E0
6.660552257E0,-7.720241547E-1,1.284284115E0,3.205471992E0
6.665583090E0,-7.513123751E-1,1.082828522E0,3.131225586E0
6.670613924E0,-6.406545639E-1,8.841767311E-1,3.072459221E0
6.675644809E0,-3.844016790E-1,7.462182045E-1,3.043279648E0
6.680675694E0,-1.145616174E-2,6.787691116E-1,3.033982277E0
6.685706580E0,3.643275499E-1,5.911974907E-1,3.068370819E0
6.690737465E0,6.877930760E-1,4.693922997E-1,3.031577110E0
6.695768351E0,9.279405475E-1,3.089485168E-1,2.923563004E0
6.700799236E0,1.005777001E0,1.436605453E-1,2.792109489E0
6.705830122E0,9.860242605E-1,-2.114057541E-2,2.589108467E0
6.710861007E0,8.228058219E-1,-1.849179268E-1,2.319095612E0
6.715891892E0,5.270513892E-1,-3.374724388E-1,2.020011902E0
6.720922778E0,1.521480232E-1,-4.592325687E-1,1.734634399E0
6.725953663E0,-2.446765602E-1,-5.640742779E-1,1.453079224E0
6.730984549E0,-5.825658441E-1,-6.994783878E-1,1.189483643E0
6.736015434E0,-8.576806188E-1,-8.172135353E-1,9.197273254E-1
6.741046319E0,-1.109272838E0,-9.123830795E-1,6.676750183E-1
6.746077205E0,-1.294912696E0,-9.800479412E-1,4.284458160E-1
6.751108090E0,-1.372501612E0,-1.063617468E0,1.878738403E-1
6.756138976E0,-1.376345634E0,-1.134571791E0,-2.521705627E-2
6.761169861E0,-1.355407596E0,-1.212389946E0,-1.771802902E-1
6.766200747E0,-1.291822433E0,-1.254214764E0,-2.679624557E-1
6.771231632E0,-1.244436026E0,-1.274859905E0,-2.782697678E-1
6.776262517E0,-1.238124371E0,-1.289114952E0,-2.462387085E-1
6.781293403E0,-1.235165000E0,-1.264019966E0,-1.668787003E-1
6.786324288E0,-1.192679286E0,-1.233845234E0,-4.466247559E-2
6.791355174E0,-1.105491996E0,-1.180217266E0,9.680747986E-2
6.796386059E0,-1.006505847E0,-1.142175674E0,2.387351990E-1
6.801416944E0,-8.758363724E-1,-1.101138592E0,3.335599899E-1
6.806447830E0,-7.559593916E-1,-1.048018694E0,3.911237717E-1
6.811478715E0,-6.128490567E-1,-9.590651989E-1,4.067468643E-1
6.816509601E0,-4.366017580E-1,-8.631646633E-1,3.996715546E-1
6.821540486E0,-2.171838284E-1,-7.554545403E-1,3.555250168E-1
6.826571372E0,-7.100284100E-3,-6.644625664E-1,2.790422440E-1
6.831602257E0,1.556531489E-1,-5.946269035E-1,1.222772598E-1
6.836633142E0,2.762206197E-1,-5.309636593E-1,-8.627891541E-2
6.841664028E0,3.598387539E-1,-4.585530758E-1,-3.420591354E-1
6.846694913E0,4.642031193E-1,-3.768413067E-1,-5.831127167E-1
6.851725799E0,5.227128863E-1,-3.091869354E-1,-8.049583435E-1
6.856756684E0,5.354984403E-1,-2.789659500E-1,-1.027003765E0
6.861787569E0,5.126335621E-1,-3.000979424E-1,-1.249444008E0
6.866818455E0,4.307729602E-1,-3.529603481E-1,-1.453361511E0
6.871849340E0,3.332949579E-1,-3.989617825E-1,-1.662829876E0
6.876880226E0,2.300696075E-1,-4.522149563E-1,-1.863599300E0
6.881911111E0,1.402603090E-1,-5.078237057E-1,-2.060492516E0
6.886941997E0,2.078876644E-2,-5.752949715E-1,-2.234378815E0
6.891972882E0,-9.513285011E-2,-6.499166489E-1,-2.409116745E0
6.897003767E0,-1.838997006E-1,-7.461171150E-1,-2.555926800E0
6.902034653E0,-2.798890471E-1,-8.592722416E-1,-2.655580997E0
6.907065538E0,-3.646150827E-1,-9.753444195E-1,-2.750990391E0
6.912096424E0,-4.389331639E-1,-1.080413818E0,-2.813238621E0
6.917127309E0,-5.083394051E-1,-1.194104671E0,-2.889955044E0
6.922158194E0,-5.397098064E-1,-1.302542925E0,-3.000022411E0
6.927189080E0,-5.624900460E-1,-1.405984879E0,-3.109824181E0
6.932219965E0,-5.775572062E-1,-1.505069256E0,-3.161709785E0
6.937250851E0,-6.000145674E-1,-1.557397842E0,-3.251151085E0
6.942281736E0,-5.778060555E-1,-1.606423140E0,-3.315821648E0
6.947312622E0,-5.111856461E-1,-1.662238359E0,-3.379467964E0
6.952343507E0,-4.195834100E-1,-1.658168077E0,-3.427660942E0
6.957374392E0,-3.129007816E-1,-1.637597322E0,-3.445997238E0
6.962405278E0,-2.678872645E-1,-1.600480318E0,-3.444148064E0
6.967436163E0,-2.941874862E-1,-1.570733786E0,-3.407829285E0
6.972467049E0,-3.677323759E-1,-1.519503593E0,-3.351510048E0
6.977497934E0,-4.739356339E-1,-1.441898823E0,-3.299186707E0
6.982528819E0,-6.217869520E-1,-1.328013897E0,-3.294043541E0
6.987559705E0,-7.965089679E-1,-1.201535463E0,-3.293080330E0
6.992590590E0,-9.356443882E-1,-1.066891909E0,-3.296442032E0
6.997621476E0,-1.020101190E0,-8.902802467E-1,-3.213397026E0
7.002652361E0,-1.002619028E0,-6.666290760E-1,-3.092039108E0
7.007683247E0,-9.461444020E-1,-3.955950737E-1,-2.946952343E0
7.012714132E0,-8.515384197E-1,-1.103537083E-1,-2.778329372E0
7.017745017E0,-7.623480558E-1,1.989092827E-1,-2.586297512E0
7.022775903E0,-6.500707865E-1,4.989528656E-1,-2.318350792E0
7.027806788E0,-5.000642538E-1,7.517471313E-1,-2.046350479E0
7.032837674E0,-3.737521768E-1,9.384784698E-1,-1.827724934E0
7.037868559E0,-2.459462285E-1,1.097692490E0,-1.633729458E0
7.042899444E0,-1.008511782E-1,1.253437996E0,-1.383022308E0
7.047930330E0,8.668063581E-2,1.410502434E0,-1.070865631E0
7.052961215E0,3.705658317E-1,1.535393238E0,-7.116775513E-1
7.057992257E0,7.085319757E-1,1.661550522E0,-3.342027664E-1
7.063023299E0,1.048837066E0,1.803273201E0,1.045570374E-1
7.068054340E0,1.330358028E0,1.912658691E0,5.088357925E-1
7.073085382E0,1.511583805E0,2.042198181E0,8.738765717E-1
7.078116424E0,1.603653550E0,2.110512257E0,1.108774185E0
7.083147309E0,1.555358410E0,2.165649414E0,1.237421989E0
7.088178194E0,1.343819737E0,2.208041668E0,1.321840286E0
7.093209080E0,1.055273652E0,2.223845959E0,1.400085449E0
7.098239965E0,7.796623707E-1,2.214027882E0,1.486115456E0
7.103270851E0,4.389558434E-1,2.160150051E0,1.594047546E0
7.108301684E0,7.457616925E-2,2.058114529E0,1.704549789E0
7.113332517E0,-2.909739316E-1,1.927414417E0,1.894112587E0
7.118363351E0,-5.818618536E-1,1.763362408E0,2.134013176E0
7.123394184E0,-7.983654737E-1,1.575143576E0,2.429244995E0
7.128425017E0,-9.738466740E-1,1.352703094E0,2.722656250E0
7.133455851E0,-1.089244127E0,1.128741026E0,3.067290306E0
7.138486684E0,-1.159381509E0,9.407787323E-1,3.430005074E0
7.143517517E0,-1.199654222E0,7.591300011E-1,3.816029549E0
7.148548351E0,-1.229867935E0,6.544117928E-1,4.192352295E0
7.153579184E0,-1.278648973E0,6.205675602E-1,4.549901009E0
7.158610017E0,-1.374155402E0,6.703717709E-1,4.846226692E0
7.163640851E0,-1.448644042E0,7.640075684E-1,5.096284866E0
7.168671684E0,-1.430291891E0,8.858039379E-1,5.247971535E0
7.173702517E0,-1.248215675E0,1.006100893E0,5.306487083E0
7.178733351E0,-9.909058809E-1,1.067127466E0,5.338954926E0
7.183764184E0,-7.283413410E-1,1.088012934E0,5.369224548E0
7.188795017E0,-5.543553233E-1,1.107197285E0,5.382756233E0
7.193825851E0,-4.944308400E-1,1.101046085E0,5.388911247E0
7.198856684E0,-4.821227789E-1,1.074394941E0,5.378050804E0
7.203887517E0,-3.688889146E-1,9.511234760E-1,5.354825974E0
7.208918351E0,-1.873248518E-1,7.555966377E-1,5.295254707E0
7.213949184E0,7.842085510E-2,4.691731930E-1,5.184963226E0
7.218980017E0,3.923028708E-1,1.595754623E-1,4.976049423E0
7.224010851E0,6.228477359E-1,-1.438143253E-1,4.716303825E0
7.229041684E0,7.537559271E-1,-4.451329708E-1,4.386486053E0
7.234072517E0,8.072214723E-1,-7.582283020E-1,3.957845688E0
7.239103351E0,8.381190896E-1,-1.020314217E0,3.444642067E0
7.244134184E0,9.051738381E-1,-1.245107412E0,2.880189896E0
7.249165069E0,9.703617096E-1,-1.417272806E0,2.278493881E0
7.254195955E0,9.566547871E-1,-1.559905052E0,1.634469032E0
7.259226840E0,8.440351486E-1,-1.657719851E0,1.014726639E0
7.264257726E0,6.554051638E-1,-1.743530273E0,3.854665756E-1
7.269288611E0,4.042506218E-1,-1.792921305E0,-1.722192764E-1
7.274319497E0,1.801380515E-1,-1.820068359E0,-6.393976212E-1
7.279350382E0,9.468287230E-3,-1.810682058E0,-9.397010803E-1
7.284381267E0,-1.007157713E-1,-1.779331207E0,-1.135517597E0
7.289412153E0,-1.293032467E-1,-1.740607500E0,-1.227001667E0
7.294443038E0,-1.168811023E-1,-1.666173935E0,-1.199909687E0
7.299473924E0,-3.650718927E-2,-1.580764771E0,-1.068507671E0
7.304504809E0,1.637548208E-1,-1.504472971E0,-8.756084442E-1
7.309535694E0,4.981942475E-1,-1.423819304E0,-6.878595352E-1
7.314566580E0,9.914429188E-1,-1.387493849E0,-5.000391006E-1
7.319597465E0,1.481940985E0,-1.353163719E0,-3.165111542E-1
7.324628351E0,1.932902932E0,-1.335562229E0,-2.182950974E-1
7.329659236E0,2.341296434E0,-1.320485830E0,-2.146692276E-1
7.334690122E0,2.704076052E0,-1.269466162E0,-2.816066742E-1
7.339721007E0,3.023131609E0,-1.177477598E0,-3.951692581E-1
7.344751892E0,3.319554567E0,-1.082125425E0,-5.699300766E-1
7.349782778E0,3.561752558E0,-9.779872894E-1,-8.156700134E-1
7.354813663E0,3.703958750E0,-9.121212959E-1,-1.132690907E0
7.359844549E0,3.657117128E0,-9.075207710E-1,-1.545275688E0
7.364875434E0,3.394205093E0,-9.440035820E-1,-1.977306843E0
7.369906319E0,2.930632591E0,-9.965686798E-1,-2.491477013E0
7.374937205E0,2.333540678E0,-1.001967907E0,-3.002126217E0
7.379968090E0,1.631001472E0,-9.544591904E-1,-3.447569847E0
7.384998976E0,8.888522983E-1,-8.436176777E-1,-3.804385662E0
7.390029861E0,2.203380316E-1,-7.358872890E-1,-4.068133354E0
7.395060747E0,-3.474025428E-1,-6.453137398E-1,-4.262927055E0
7.400091632E0,-8.586159945E-1,-5.719676018E-1,-4.388744354E0
7.405122517E0,-1.209194183E0,-5.449500084E-1,-4.440623283E0
7.410153403E0,-1.457385540E0,-5.409550667E-1,-4.432622910E0
7.415184288E0,-1.618418455E0,-5.606684685E-1,-4.373992920E0
7.420215174E0,-1.740933537E0,-5.858337879E-1,-4.283464432E0
7.425246059E0,-1.815948129E0,-5.980799198E-1,-4.146345139E0
7.430276944E0,-1.863280177E0,-5.936033726E-1,-3.962250233E0
7.435307830E0,-1.849883795E0,-5.925669670E-1,-3.735574245E0
7.440338715E0,-1.785810232E0,-6.006121635E-1,-3.494710922E0
7.445369601E0,-1.729045033E0,-6.283526421E-1,-3.267969131E0
7.450400486E0,-1.689359188E0,-6.478998661E-1,-3.078944683E0
7.455431372E0,-1.710174918E0,-6.934845448E-1,-2.879537106E0
7.460462257E0,-1.734482288E0,-7.227931023E-1,-2.688666344E0
7.465493142E0,-1.757802010E0,-7.508130074E-1,-2.501382828E0
7.470524028E0,-1.742510319E0,-7.493340969E-1,-2.293690681E0
7.475554913E0,-1.717876434E0,-7.284796238E-1,-2.108559132E0
7.480585799E0,-1.607872009E0,-6.743307114E-1,-1.874161243E0
7.485616684E0,-1.465905190E0,-6.112430096E-1,-1.609631538E0
7.490647569E0,-1.272847176E0,-5.203371048E-1,-1.377117157E0
7.495678455E0,-1.018842697E0,-4.066977501E-1,-1.200370312E0
7.500709340E0,-7.557859421E-1,-2.750098705E-1,-1.069740772E0
7.505740226E0,-4.971516132E-1,-1.490139961E-1,-1.013853073E0
7.510771111E0,-2.086504102E-1,-4.398822784E-3,-1.003980637E0
7.515801997E0,-1.372748613E-2,1.403119564E-1,-1.068903446E0
7.520832882E0,1.171063185E-1,2.906045914E-1,-1.160897732E0
7.525863767E0,2.324533463E-1,4.040734768E-1,-1.256192207E0
7.530894653E0,3.092738986E-1,5.103468895E-1,-1.417230606E0
7.535925538E0,4.294419289E-1,5.911333561E-1,-1.562920570E0
7.540956424E0,5.546793342E-1,7.095620632E-1,-1.655392647E0
7.545987309E0,6.944937110E-1,8.617668152E-1,-1.695115566E0
7.551018194E0,7.960317135E-1,9.957728386E-1,-1.706370831E0
7.556049080E0,9.168196321E-1,1.126760483E0,-1.718243122E0
7.561079965E0,1.042460084E0,1.217181921E0,-1.654540539E0
7.566110851E0,1.110797524E0,1.277070045E0,-1.553822517E0
7.571141736E0,1.083901048E0,1.287689447E0,-1.421093941E0
7.576172622E0,9.912840724E-1,1.316264629E0,-1.261281013E0
7.581203507E0,8.768601418E-1,1.324489832E0,-1.017029285E0
7.586234392E0,7.889121771E-1,1.355127335E0,-7.074651718E-1
7.591265278E0,7.039310932E-1,1.383793592E0,-3.994445801E-1
7.596296163E0,7.370474339E-1,1.400306702E0,-7.835960388E-2
7.601327049E0,8.212686777E-1,1.432903290E0,2.368335724E-1
7.606357934E0,8.895075917E-1,1.433269024E0,5.463399887E-1
7.611388819E0,8.652822375E-1,1.448745728E0,8.216953278E-1
7.616419705E0,7.676969767E-1,1.459755182E0,9.818210602E-1
7.621450590E0,6.826851368E-1,1.537752867E0,1.074810028E0
7.626481476E0,6.334816813E-1,1.620343447E0,1.148624420E0
7.631512361E0,6.525650620E-1,1.717472792E0,1.198324203E0
7.636543247E0,6.382793188E-1,1.800719023E0,1.262057304E0
7.641574132E0,5.515210629E-1,1.841741800E0,1.339645386E0
7.646605017E0,3.538514972E-1,1.874355316E0,1.426159859E0
7.651635903E0,1.411331147E-1,1.908368826E0,1.511926651E0
7.656666788E0,-7.219772041E-2,1.939042568E0,1.644755363E0
7.661697674E0,-2.143386155E-1,1.966570616E0,1.877115250E0
7.666728559E0,-2.902234197E-1,1.948012352E0,2.156237602E0
7.671759444E0,-3.998925984E-1,1.902657032E0,2.534645081E0
7.676790330E0,-5.808023810E-1,1.820495367E0,2.921574593E0
7.681821215E0,-8.173813820E-1,1.748622417E0,3.279115677E0
7.686852101E0,-1.065203190E0,1.676582098E0,3.574231148E0
7.691882986E0,-1.257378578E0,1.560402155E0,3.826524734E0
7.696913872E0,-1.361962557E0,1.351665258E0,4.041080475E0
7.701944757E0,-1.323750019E0,1.078531981E0,4.184695244E0
7.706975642E0,-1.126724482E0,7.742106915E-1,4.324484825E0
7.712006528E0,-7.834611535E-1,5.101954937E-1,4.513107300E0
7.717037413E0,-3.531891704E-1,3.339970112E-1,4.697968483E0
7.722068299E0,7.813245058E-2,2.118332386E-1,4.802665710E0
7.727099184E0,4.452269077E-1,1.530559063E-1,4.784395218E0
7.732130069E0,7.797968388E-1,1.385889053E-1,4.643347740E0
7.737160955E0,9.940509796E-1,1.975245476E-1,4.432160378E0
7.742191840E0,1.028759360E0,2.298648357E-1,4.145947456E0
7.747222726E0,8.669866323E-1,2.411792278E-1,3.784480095E0
7.752253611E0,5.964963436E-1,2.371222973E-1,3.361815453E0
7.757284497E0,2.469146401E-1,1.897242069E-1,2.901614189E0
7.762315382E0,-1.096848473E-1,7.588481903E-2,2.427487373E0
7.767346267E0,-4.597628713E-1,-2.703094482E-2,1.977371216E0
7.772377153E0,-7.421754003E-1,-1.135392189E-1,1.541361809E0
7.777408038E0,-9.534021020E-1,-2.167603970E-1,1.200576782E0
7.782438924E0,-1.084999204E0,-2.982795238E-1,8.783245087E-1
7.787469809E0,-1.152236223E0,-4.251847267E-1,5.889778137E-1
7.792500694E0,-1.180024505E0,-5.879633427E-1,3.851470947E-1
7.797531580E0,-1.136010170E0,-7.439241409E-1,2.477636337E-1
7.802562465E0,-9.877886176E-1,-8.695564270E-1,1.529893875E-1
7.807593351E0,-7.985916734E-1,-9.079918861E-1,1.105279922E-1
7.812624236E0,-6.358947754E-1,-8.743097782E-1,8.231163025E-2
7.817655122E0,-5.236688852E-1,-7.691702843E-1,1.116027832E-1
7.822686007E0,-4.471424222E-1,-6.029884815E-1,1.317071915E-1
7.827716892E0,-3.485868275E-1,-4.385333061E-1,1.572160721E-1
7.832747778E0,-2.229595482E-1,-2.955956459E-1,1.692886353E-1
7.837778663E0,-4.145762324E-2,-1.603186131E-1,1.729583740E-1
7.842809549E0,2.006617337E-1,-1.388001442E-2,1.492538452E-1
7.847840434E0,4.889612794E-1,1.244077682E-1,6.482219696E-2
7.852871319E0,7.662914395E-1,2.449679375E-1,-2.762031555E-2
7.857902205E0,1.008881211E0,3.480367661E-1,-1.759576797E-1
7.862933090E0,1.226575255E0,4.482903481E-1,-3.563165665E-1
7.867963976E0,1.419490933E0,5.079650879E-1,-5.736379623E-1
7.872994861E0,1.602242112E0,5.372610092E-1,-8.233318329E-1
7.878025747E0,1.780312181E0,5.178623199E-1,-1.120035648E0
7.883056632E0,1.911426067E0,4.696846008E-1,-1.468788147E0
7.888087517E0,2.001047611E0,3.889369965E-1,-1.850837231E0
7.893118403E0,1.978186369E0,2.527933121E-1,-2.247505188E0
7.898149288E0,1.833921194E0,1.149654388E-1,-2.664065838E0
7.903180174E0,1.597546101E0,-1.394987106E-2,-3.019704342E0
7.908211059E0,1.302970409E0,-1.809053421E-1,-3.334073067E0
7.913241944E0,1.012721419E0,-3.181612492E-1,-3.574116230E0
7.918272830E0,7.219533920E-1,-4.777138233E-1,-3.749807835E0
7.923303715E0,4.255887866E-1,-6.163215637E-1,-3.808693409E0
7.928334601E0,1.375724226E-1,-7.676014900E-1,-3.779531956E0
7.933365486E0,-1.280435622E-1,-9.033830166E-1,-3.666907787E0
7.938396372E0,-3.383920193E-1,-1.000736952E0,-3.489542961E0
7.943427257E0,-5.033776760E-1,-1.055932522E0,-3.290024757E0
7.948458142E0,-6.235818863E-1,-1.074763298E0,-3.087015152E0
7.953489028E0,-6.948477030E-1,-1.086978436E0,-2.946976185E0
7.958519913E0,-6.941580772E-1,-1.083934307E0,-2.773766994E0
7.963550799E0,-6.227113008E-1,-1.061669827E0,-2.610153675E0
7.968581684E0,-4.528322816E-1,-1.049699306E0,-2.518001556E0
7.973612569E0,-2.761255503E-1,-1.024543285E0,-2.444487572E0
7.978643455E0,-9.757518768E-2,-1.010529280E0,-2.442070007E0
7.983674340E0,3.482300043E-2,-1.003072262E0,-2.429322243E0
7.988705226E0,8.760267496E-2,-1.007118702E0,-2.415792465E0
7.993736111E0,8.486396074E-2,-1.022658825E0,-2.420643806E0
7.998766997E0,2.483367920E-3,-1.040085316E0,-2.429578781E0
8.003797882E0,-1.068995595E-1,-1.035452127E0,-2.437860489E0
8.008828767E0,-2.627679110E-1,-1.008677006E0,-2.407341957E0
8.013859653E0,-3.935956955E-1,-9.549393654E-1,-2.347709656E0
8.018890538E0,-5.522670746E-1,-8.932852745E-1,-2.273439407E0
8.023921372E0,-7.393132448E-1,-8.236706257E-1,-2.155941010E0
8.028952205E0,-9.120109677E-1,-7.556586266E-1,-2.033565044E0
8.033983038E0,-1.065593243E0,-7.179710865E-1,-1.925433636E0
8.039013872E0,-1.175916791E0,-6.579773426E-1,-1.793229580E0
8.044044705E0,-1.218875647E0,-5.661416054E-1,-1.665636539E0
8.049075538E0,-1.199129939E0,-4.280877113E-1,-1.504376411E0
8.054106372E0,-1.083281755E0,-2.724833488E-1,-1.338190079E0
8.059137205E0,-9.142754078E-1,-9.922075272E-2,-1.128822803E0
8.064168038E0,-7.203561068E-1,5.362772942E-2,-9.241647720E-1
8.069198872E0,-5.536645651E-1,1.862633228E-1,-6.763849258E-1
8.074229705E0,-4.415307045E-1,3.130421638E-1,-4.667119980E-1
8.079260538E0,-3.537497818E-1,4.339826107E-1,-2.663068771E-1
8.084291372E0,-2.651070356E-1,5.443677902E-1,-9.424495697E-2
8.089322205E0,-1.793724298E-1,6.538281441E-1,7.821273804E-2
8.094353038E0,-8.139327168E-2,7.434246540E-1,2.031698227E-1
8.099383872E0,1.960840821E-2,8.420729637E-1,3.140611649E-1
8.104414705E0,9.489606321E-2,9.355535507E-1,4.538497925E-1
8.109445538E0,1.114108860E-1,1.019424200E0,5.362539291E-1
8.114476372E0,5.497741699E-2,1.098753929E0,6.042413712E-1
8.119507205E0,-5.964310467E-2,1.135658503E0,6.767778397E-1
8.124538038E0,-1.986558586E-1,1.135243654E0,7.058973312E-1
8.129568872E0,-3.475956619E-1,1.117203951E0,6.674957275E-1
8.134599705E0,-5.112976432E-1,1.124880314E0,6.476030350E-1
8.139630538E0,-6.088892221E-1,1.130454779E0,5.883951187E-1
8.144661372E0,-6.987602115E-1,1.081904650E0,6.379022598E-1
8.149692205E0,-7.581751943E-1,1.046637058E0,7.479772568E-1
8.154723038E0,-7.738156915E-1,9.863767624E-1,9.233198166E-1
8.159753872E0,-7.270020843E-1,9.393773079E-1,1.192568779E0
8.164784705E0,-6.320218444E-1,9.003224373E-1,1.503246307E0
8.169815538E0,-5.602312088E-1,8.066124916E-1,1.860295296E0
8.174846424E0,-4.964936972E-1,6.719956398E-1,2.211373329E0
8.179877309E0,-4.543197155E-1,5.054714680E-1,2.547226906E0
8.184908194E0,-5.187915564E-1,3.828749657E-1,2.825176239E0
8.189939080E0,-6.648123860E-1,2.844905853E-1,3.026432991E0
8.194969965E0,-8.010714054E-1,2.575252056E-1,3.146586418E0
8.200000851E0,-8.082817793E-1,2.394726276E-1,3.142812729E0
8.205031736E0,-7.687224150E-1,1.922168732E-1,3.053467751E0
8.210062622E0,-7.558095455E-1,1.399569511E-1,2.959823608E0
8.215093507E0,-8.142966032E-1,1.211411953E-1,2.833060265E0
8.220124392E0,-8.737561703E-1,1.406352520E-1,2.701800346E0
8.225155278E0,-8.833326101E-1,1.985669136E-1,2.642399788E0
8.230186163E0,-8.115556836E-1,2.713038921E-1,2.640169144E0
8.235217049E0,-5.932530761E-1,3.111474514E-1,2.713986397E0
8.240247934E0,-2.051014304E-1,2.896709442E-1,2.806230545E0
8.245278819E0,2.434535325E-1,1.878085136E-1,2.931262970E0
8.250309705E0,6.539105773E-1,8.194446564E-4,3.065267563E0
8.255340590E0,9.529448748E-1,-2.237334251E-1,3.155946732E0
8.260371476E0,1.138961673E0,-4.526121616E-1,3.170159340E0
8.265402361E0,1.224113941E0,-7.050900459E-1,3.146451950E0
8.270433247E0,1.228956938E0,-9.428863525E-1,3.013216972E0
8.275464132E0,1.130374432E0,-1.180325985E0,2.823244095E0
8.280495017E0,9.191496372E-1,-1.407908320E0,2.605369568E0
8.285525903E0,6.235768795E-1,-1.568433762E0,2.388400078E0
8.290556788E0,2.714685202E-1,-1.643159270E0,2.201122284E0
8.295587674E0,-7.136589289E-2,-1.656716347E0,1.967153549E0
8.300618559E0,-3.873525262E-1,-1.662423372E0,1.729730606E0
8.305649444E0,-6.600332260E-1,-1.622485638E0,1.507939339E0
8.310680330E0,-8.157491088E-1,-1.532675147E0,1.306445122E0
8.315711215E0,-8.719531894E-1,-1.312130213E0,1.211106300E0
8.320742101E0,-8.324683309E-1,-1.019005060E0,1.235903740E0
8.325772986E0,-6.192414761E-1,-6.826825142E-1,1.323104858E0
8.330803872E0,-2.437512279E-1,-3.945147991E-1,1.477329254E0
8.335834757E0,2.838887572E-1,-1.697151661E-1,1.607896805E0
8.340865642E0,8.924285769E-1,-4.187512398E-2,1.762868881E0
8.345896528E0,1.568600416E0,4.589438438E-2,1.947455406E0
8.350927413E0,2.309504509E0,1.223769188E-1,2.090242386E0
8.355958299E0,3.055718899E0,1.640005112E-1,2.177270889E0
8.360989184E0,3.714789391E0,1.999537945E-1,2.141932487E0
8.366020069E0,4.257272720E0,1.878936291E-1,1.898450851E0
8.371050955E0,4.611442089E0,1.096558571E-1,1.442300797E0
8.376081840E0,4.748375416E0,-3.362751007E-2,7.878808975E-1
8.381112726E0,4.637913227E0,-2.022364140E-1,-1.722812653E-2
8.386143611E0,4.329753876E0,-3.274512291E-1,-9.113893509E-1
8.391174497E0,3.829140425E0,-3.596582413E-1,-1.799654007E0
8.396205382E0,3.187399864E0,-3.160581589E-1,-2.625557899E0
8.401236267E0,2.445198059E0,-2.476582527E-1,-3.342142582E0
8.406267153E0,1.671729088E0,-1.817905903E-1,-3.897599697E0
8.411298038E0,1.032335162E0,-1.365883350E-1,-4.345221043E0
8.416328924E0,5.110572577E-1,-9.224343300E-2,-4.666339874E0
8.421359809E0,1.111497730E-1,-8.694529533E-2,-4.894675732E0
8.426390694E0,-1.492918134E-1,-1.447703838E-1,-4.996811390E0
8.431421580E0,-3.042911887E-1,-2.329039574E-1,-4.963048458E0
8.436452465E0,-3.493455648E-1,-3.378357887E-1,-4.821886063E0
8.441483351E0,-3.470220268E-1,-4.463598728E-1,-4.592114449E0
8.446514236E0,-3.408564031E-1,-5.308976173E-1,-4.282953739E0
8.451545122E0,-2.929615378E-1,-6.023130417E-1,-3.932267666E0
8.456576007E0,-1.172608137E-1,-7.002506256E-1,-3.553925514E0
8.461606892E0,2.010915130E-1,-7.207317352E-1,-3.109210491E0
8.466637778E0,-3.524503112E-2,-7.608685493E-1,-2.717245102E0
8.471668663E0,-2.749440968E-1,-8.457393646E-1,-2.477972984E0
8.476699549E0,-3.500400484E-1,-9.142286777E-1,-2.271268368E0
8.481730434E0,-3.421312571E-1,-9.481306076E-1,-2.072914600E0
8.486761319E0,-4.335882366E-1,-9.671835899E-1,-1.959292412E0
8.491792205E0,-5.865590572E-1,-9.860293865E-1,-1.915921211E0
8.496823090E0,-7.538533211E-1,-9.570760727E-1,-1.899663925E0
8.501853976E0,-8.977233171E-1,-8.804574013E-1,-1.948779106E0
8.506884861E0,-1.004792809E0,-7.561666965E-1,-2.025019169E0
8.511915747E0,-1.051995873E0,-5.982737541E-1,-2.109386921E0
8.516946632E0,-1.054823041E0,-4.017457962E-1,-2.197251797E0
8.521977517E0,-9.953216314E-1,-1.564650536E-1,-2.298429012E0
8.527008403E0,-8.935405016E-1,1.236684322E-1,-2.413104534E0
8.532039288E0,-7.596080303E-1,3.721721172E-1,-2.527089119E0
8.537070174E0,-5.936778784E-1,6.137189865E-1,-2.626245499E0
8.542101059E0,-3.766568005E-1,8.394241333E-1,-2.672512054E0
8.547131944E0,-1.659252048E-1,1.045334816E0,-2.632688522E0
8.552162830E0,2.924677730E-2,1.227405310E0,-2.444874763E0
8.557193715E0,1.946724653E-1,1.438654184E0,-2.248005390E0
8.562224601E0,3.312038481E-1,1.598130465E0,-1.979954243E0
8.567255486E0,4.546302259E-1,1.706023216E0,-1.741182327E0
8.572286372E0,5.524516702E-1,1.733925819E0,-1.483821869E0
8.577317257E0,6.127390862E-1,1.672347546E0,-1.131317139E0
8.582348142E0,6.051016450E-1,1.612199545E0,-7.507143021E-1
8.587379028E0,5.652149916E-1,1.572605133E0,-4.233999252E-1
8.592409913E0,5.423148870E-1,1.553495407E0,-2.450237274E-1
8.597440799E0,4.890233874E-1,1.569256783E0,-1.007251740E-1
8.602471684E0,4.056989253E-1,1.586487770E0,9.073638916E-2
8.607502569E0,2.631357312E-1,1.629413605E0,3.195896149E-1
8.612533455E0,9.819813073E-2,1.636193991E0,5.282621384E-1
8.617564340E0,-6.222083792E-2,1.650028229E0,7.215318680E-1
8.622595226E0,-2.002658099E-1,1.685116291E0,9.138259888E-1
8.627626111E0,-3.166874647E-1,1.736458063E0,1.138702393E0
8.632656997E0,-3.683342934E-1,1.789094687E0,1.401111603E0
8.637687882E0,-3.835786581E-1,1.804024458E0,1.667790413E0
8.642718767E0,-3.764410317E-1,1.775668144E0,1.862510681E0
8.647749653E0,-4.284557998E-1,1.732224464E0,2.038165092E0
8.652780538E0,-5.026521087E-1,1.673159122E0,2.190190315E0
8.657811424E0,-5.770685077E-1,1.579153776E0,2.333023071E0
8.662842309E0,-6.638144851E-1,1.469272137E0,2.442768097E0
8.667873194E0,-7.555615902E-1,1.324247122E0,2.576865196E0
8.672904080E0,-7.582815886E-1,1.167928934E0,2.716146469E0
8.677934965E0,-7.012336850E-1,9.762194157E-1,2.898908615E0
8.682965799E0,-5.937176347E-1,7.822489738E-1,3.120447159E0
8.687996632E0,-4.727209806E-1,5.855298042E-1,3.328298569E0
8.693027465E0,-3.885372877E-1,4.573135376E-1,3.541812897E0
8.698058299E0,-4.203900695E-1,4.401664734E-1,3.722888947E0
8.703089132E0,-4.756851196E-1,4.713370800E-1,3.752183914E0
8.708119965E0,-4.342501163E-1,4.789383411E-1,3.639503479E0
8.713150799E0,-2.681262195E-1,4.441807270E-1,3.451899529E0
8.718181632E0,2.994138561E-2,3.871581554E-1,3.213104248E0
8.723212465E0,4.289015234E-1,3.329231739E-1,2.908505440E0
8.728243299E0,8.506193161E-1,2.878086567E-1,2.623791695E0
8.733274132E0,1.161193371E0,2.340145111E-1,2.329826355E0
8.738304965E0,1.361612678E0,1.295883656E-1,2.098015785E0
8.743335799E0,1.463517666E0,-1.497721672E-2,1.908846855E0
8.748366632E0,1.455109477E0,-1.606199741E-1,1.694992065E0
8.753397465E0,1.300794482E0,-2.970244884E-1,1.484808922E0
8.758428299E0,9.981228113E-1,-4.427776337E-1,1.282749176E0
8.763459132E0,5.634720922E-1,-5.926535130E-1,1.059810638E0
8.768489965E0,8.942896128E-2,-7.318511009E-1,8.396406174E-1
8.773520799E0,-4.088055789E-1,-8.075489998E-1,6.651105881E-1
8.778551632E0,-8.595274687E-1,-8.821055889E-1,5.648813248E-1
8.783582465E0,-1.253788829E0,-9.607117176E-1,4.768791199E-1
8.788613299E0,-1.530654907E0,-1.039050579E0,4.252624512E-1
8.793644132E0,-1.667761683E0,-1.117852211E0,3.721065521E-1
8.798674965E0,-1.724485517E0,-1.173891783E0,3.703947067E-1
8.803705799E0,-1.750317097E0,-1.179247856E0,3.773889542E-1
8.808736632E0,-1.765816569E0,-1.144343853E0,4.269132614E-1
8.813767465E0,-1.800810218E0,-1.065386295E0,5.192871094E-1
8.818798299E0,-1.798690200E0,-9.626600742E-1,6.357183456E-1
8.823829132E0,-1.750515699E0,-8.229560852E-1,7.813215256E-1
8.828859965E0,-1.633001208E0,-6.520674229E-1,9.133119583E-1
8.833890799E0,-1.489635825E0,-4.748611450E-1,1.027182579E0
8.838921632E0,-1.330352306E0,-3.065087795E-1,1.108824730E0
8.843952465E0,-1.145944595E0,-1.380462646E-1,1.148860931E0
8.848983299E0,-9.225058556E-1,2.064990997E-2,1.133049965E0
8.854014184E0,-6.940059662E-1,1.600692272E-1,1.118807793E0
8.859045069E0,-5.038468838E-1,2.995598316E-1,1.072571754E0
8.864075955E0,-3.282641768E-1,4.250216484E-1,1.008650780E0
8.869106840E0,-1.524446160E-1,5.084743500E-1,8.742437363E-1
8.874137726E0,3.396514058E-2,5.314860344E-1,7.266340256E-1
8.879168611E0,2.370322198E-1,4.901456833E-1,5.608119965E-1
8.884199497E0,4.533473253E-1,4.141192436E-1,4.052095413E-1
8.889230382E0,5.652637482E-1,2.897930145E-1,2.356595993E-1
8.894261267E0,5.745623112E-1,1.373069286E-1,6.140708923E-2
8.899292153E0,5.119645596E-1,-4.259657860E-2,-1.417293549E-1
8.904323038E0,3.836044073E-1,-2.349169254E-1,-3.452606201E-1
8.909353924E0,2.290985286E-1,-4.294443130E-1,-6.163778305E-1
8.914384809E0,3.991596401E-2,-6.494593620E-1,-9.312992096E-1
8.919415694E0,-2.219398320E-1,-8.226544857E-1,-1.270982742E0
8.924446580E0,-5.422630906E-1,-9.726173878E-1,-1.635457993E0
8.929477465E0,-8.836658001E-1,-1.075087786E0,-1.943417549E0
8.934508351E0,-1.171110988E0,-1.144412398E0,-2.185275555E0
8.939539236E0,-1.310375810E0,-1.180840850E0,-2.413553715E0
8.944570122E0,-1.326865911E0,-1.237541914E0,-2.551501751E0
8.949601007E0,-1.260187387E0,-1.300516486E0,-2.642094612E0
8.954631892E0,-1.120823264E0,-1.332120538E0,-2.723415375E0
8.959662778E0,-1.000594258E0,-1.333115458E0,-2.747412682E0
8.964693663E0,-9.099425673E-1,-1.337584496E0,-2.752253532E0
8.969724549E0,-8.830074072E-1,-1.341460943E0,-2.761686325E0
8.974755434E0,-8.772114515E-1,-1.374113917E0,-2.742071152E0
8.979786319E0,-8.452641964E-1,-1.388358235E0,-2.731568336E0
8.984817205E0,-8.163243532E-1,-1.403816819E0,-2.706191063E0
8.989848090E0,-7.857870460E-1,-1.416426420E0,-2.641906738E0
8.994878976E0,-6.917526722E-1,-1.412205458E0,-2.533957005E0
8.999909861E0,-6.015350223E-1,-1.386894464E0,-2.406249523E0
9.004940747E0,-5.485550761E-1,-1.350546837E0,-2.320913792E0
9.009971632E0,-4.700871110E-1,-1.298892260E0,-2.301698208E0
9.015002517E0,-3.609762788E-1,-1.246489644E0,-2.305448055E0
9.020033403E0,-2.691839933E-1,-1.159836650E0,-2.298709393E0
9.025064288E0,-2.379710674E-1,-1.015043259E0,-2.281548977E0
9.030095174E0,-2.438346744E-1,-8.548729420E-1,-2.297171116E0
9.035126059E0,-2.968640327E-1,-6.790906191E-1,-2.302620411E0
9.040156944E0,-3.261116743E-1,-4.872653484E-1,-2.264625072E0
9.045187830E0,-2.940158248E-1,-3.219494820E-1,-2.212121487E0
9.050218715E0,-2.245876193E-1,-1.587769985E-1,-2.102190018E0
9.055249601E0,-1.794459820E-1,-1.658725739E-2,-1.982743263E0
9.060280486E0,-1.719872355E-1,1.336047649E-1,-1.786818504E0
9.065311372E0,-1.915561557E-1,2.489514351E-1,-1.571855068E0
9.070342257E0,-1.939213872E-1,3.678610325E-1,-1.270852089E0
9.075373142E0,-1.395402551E-1,4.904332161E-1,-9.842710495E-1
9.080404028E0,-1.748746634E-2,6.357502937E-1,-7.789363861E-1
9.085434913E0,8.256381750E-2,7.800993919E-1,-6.164760590E-1
9.090465799E0,1.231669188E-1,8.902189732E-1,-5.446805954E-1
9.095496684E0,1.140679121E-1,9.953532219E-1,-4.870681763E-1
9.100527569E0,5.525833368E-2,1.062381744E0,-4.580831528E-1
9.105558455E0,-2.479654551E-2,1.106285810E0,-4.531030655E-1
9.110589340E0,-1.215436459E-1,1.108247757E0,-5.152502060E-1
9.115620226E0,-2.109982967E-1,1.088145733E0,-5.872592926E-1
9.120651111E0,-3.076439500E-1,1.056061029E0,-5.975475311E-1
9.125681997E0,-3.301125169E-1,1.007663012E0,-5.798034668E-1
9.130712882E0,-2.930121422E-1,9.719173908E-1,-5.532846451E-1
9.135743767E0,-2.159050703E-1,9.541034698E-1,-4.799175262E-1
9.140774653E0,-1.135810018E-1,9.593489170E-1,-3.120689392E-1
9.145805538E0,2.310031652E-2,9.541180134E-1,-1.072540283E-1
9.150836424E0,1.364764273E-1,8.858942986E-1,1.009740829E-1
9.155867309E0,1.549181640E-1,7.499361038E-1,3.174266815E-1
9.160898194E0,7.868152857E-2,5.941500664E-1,5.755977631E-1
9.165929080E0,-1.057100296E-2,4.612913132E-1,8.420886993E-1
9.170959965E0,-1.941165328E-1,3.796479702E-1,1.140941620E0
9.175990851E0,-3.618367910E-1,3.006596565E-1,1.429293633E0
9.181021736E0,-5.041271448E-1,2.332129478E-1,1.697818756E0
9.186052622E0,-6.543617249E-1,2.005419731E-1,1.941973686E0
9.191083507E0,-7.886316776E-1,2.209651470E-1,2.152455330E0
9.196114392E0,-8.971100450E-1,3.369474411E-1,2.291214943E0
9.201145278E0,-9.416987300E-1,5.047736168E-1,2.281971931E0
9.206176163E0,-9.662285447E-1,6.715774536E-1,2.239690781E0
9.211207049E0,-1.005972862E0,7.992072105E-1,2.269457817E0
9.216237934E0,-1.049228668E0,9.116587639E-1,2.323122978E0
9.221268819E0,-1.064929724E0,1.047514200E0,2.443399429E0
9.226299705E0,-1.045664549E0,1.178154469E0,2.634761810E0
9.231330590E0,-9.447297454E-1,1.275010586E0,2.844384193E0
9.236361424E0,-7.146268487E-1,1.266474247E0,3.081786156E0
9.241392257E0,-3.741043210E-1,1.119237900E0,3.332659721E0
9.246423090E0,9.804344177E-2,8.287916183E-1,3.573287010E0
9.251453924E0,4.994090199E-1,4.860563278E-1,3.870967865E0
9.256484757E0,7.383361459E-1,1.574778557E-1,4.159108162E0
9.261515590E0,8.327233791E-1,-1.764659882E-1,4.318441391E0
9.266546424E0,8.101039529E-1,-5.399835110E-1,4.368490219E0
9.271577257E0,7.114325762E-1,-9.428970814E-1,4.285631180E0
9.276608090E0,5.188695192E-1,-1.351771235E0,4.098762512E0
9.281638924E0,2.230166197E-1,-1.718921423E0,3.879770279E0
9.286669757E0,-2.057121396E-1,-1.987020969E0,3.614311218E0
9.291700590E0,-7.120379806E-1,-2.132515669E0,3.345444679E0
9.296731424E0,-1.227209926E0,-2.160705090E0,3.101797104E0
9.301762257E0,-1.640295863E0,-2.077056408E0,2.892781258E0
9.306793090E0,-1.797407627E0,-1.939611197E0,2.675130844E0
9.311823924E0,-1.611805677E0,-1.753845811E0,2.563431740E0
9.316854757E0,-1.135392427E0,-1.501214862E0,2.576434135E0
9.321885590E0,-5.055403113E-1,-1.220668316E0,2.656420708E0
9.326916424E0,1.616423726E-1,-9.748922586E-1,2.722017288E0
9.331947257E0,9.621454477E-1,-7.929257154E-1,2.783001900E0
9.336978090E0,1.834913731E0,-6.508898735E-1,2.868353844E0
9.342008924E0,2.637718916E0,-5.629833937E-1,2.987890244E0
9.347039757E0,3.391836882E0,-4.858446121E-1,3.084506035E0
9.352070590E0,4.071259022E0,-4.718047380E-1,3.067702293E0
9.357101424E0,4.607999802E0,-4.867295027E-1,2.894844055E0
9.362132257E0,4.967943192E0,-5.824425220E-1,2.537555695E0
9.367163090E0,5.165199280E0,-7.099542618E-1,1.991213799E0
9.372193924E0,5.203613758E0,-8.438497782E-1,1.346587181E0
9.377224757E0,5.129240990E0,-9.348810911E-1,6.894397736E-1
9.382255590E0,4.891418457E0,-9.957145452E-1,-7.167816162E-2
9.387286424E0,4.428915501E0,-1.000675797E0,-8.703308105E-1
9.392317257E0,3.818227291E0,-9.913146496E-1,-1.659227848E0
9.397348090E0,3.101176023E0,-9.277168512E-1,-2.434187412E0
9.402378924E0,2.347872496E0,-8.180980682E-1,-3.152676582E0
9.407409757E0,1.604016304E0,-6.470623016E-1,-3.767323494E0
9.412440590E0,9.296039343E-1,-4.524059296E-1,-4.211505413E0
9.417471424E0,3.367318511E-1,-2.627785206E-1,-4.514188290E0
9.422502257E0,-1.143347919E-1,-1.548144817E-1,-4.689881325E0
9.427533142E0,-4.970715940E-1,-1.338729858E-1,-4.724211693E0
9.432564028E0,-7.553756833E-1,-1.482186317E-1,-4.674466133E0
9.437594913E0,-8.999079466E-1,-1.896257401E-1,-4.492527485E0
9.442625799E0,-9.654120207E-1,-2.212657928E-1,-4.206857204E0
9.447656684E0,-9.671326876E-1,-2.637975216E-1,-3.879356384E0
9.452687569E0,-9.677891135E-1,-3.426811695E-1,-3.495323658E0
9.457718455E0,-9.386443496E-1,-4.259612560E-1,-3.121375084E0
9.462749340E0,-9.078198075E-1,-5.390713215E-1,-2.737953186E0
9.467780226E0,-8.888129592E-1,-6.357324123E-1,-2.397245884E0
9.472811111E0,-9.190779924E-1,-7.220307589E-1,-2.122773170E0
9.477841997E0,-9.691811800E-1,-7.895493507E-1,-1.933293343E0
9.482872882E0,-1.043936968E0,-8.580774069E-1,-1.809454918E0
9.487903767E0,-1.163007975E0,-9.040824175E-1,-1.717679024E0
9.492934653E0,-1.317466736E0,-9.231113195E-1,-1.696189880E0
9.497965538E0,-1.431887627E0,-8.817137480E-1,-1.706746101E0
9.502996424E0,-1.521641493E0,-8.036465645E-1,-1.778141022E0
9.508027309E0,-1.540052295E0,-6.840511560E-1,-1.838675499E0
9.513058194E0,-1.468829393E0,-5.082664490E-1,-1.926750183E0
9.518089080E0,-1.351143837E0,-3.334226608E-1,-2.061504364E0
9.523119965E0,-1.201202393E0,-1.683752537E-1,-2.209513187E0
9.528150851E0,-1.023411036E0,6.782531738E-3,-2.375641346E0
9.533181736E0,-8.080949783E-1,1.834466457E-1,-2.469177723E0
9.538212622E0,-5.982275605E-1,3.862469196E-1,-2.461625576E0
9.543243507E0,-4.177693129E-1,5.966284275E-1,-2.377116680E0
9.548274392E0,-2.135218382E-1,7.912678719E-1,-2.234931469E0
9.553305278E0,1.051476598E-2,9.608583450E-1,-2.068565845E0
9.558336163E0,1.840478480E-1,1.086580515E0,-1.863641739E0
9.563367049E0,3.803174794E-1,1.173434019E0,-1.720575333E0
9.568397934E0,5.098525286E-1,1.269700050E0,-1.562815666E0
9.573428819E0,6.028147936E-1,1.337636709E0,-1.404850483E0
9.578459705E0,6.027437449E-1,1.387266874E0,-1.285083771E0
9.583490590E0,5.585076809E-1,1.447969675E0,-1.170230865E0
9.588521476E0,4.851122499E-1,1.477197409E0,-1.117899895E0
9.593552361E0,3.784324229E-1,1.489900112E0,-1.118704796E0
9.598583247E0,3.439191580E-1,1.510582447E0,-1.125030518E0
9.603614132E0,3.766140342E-1,1.544450283E0,-1.137102127E0
9.608645017E0,3.947877884E-1,1.568109035E0,-1.069094658E0
9.613675903E0,3.452295065E-1,1.596150875E0,-9.690856934E-1
9.618706788E0,1.991332024E-1,1.585464239E0,-8.562784195E-1
9.623737674E0,1.869114488E-2,1.535984278E0,-7.019958496E-1
9.628768559E0,-1.866368651E-1,1.461602449E0,-5.252676010E-1
9.633799444E0,-3.644715548E-1,1.385858536E0,-2.829542160E-1
9.638830330E0,-4.772331119E-1,1.327137947E0,-2.270507812E-2
9.643861215E0,-5.931715369E-1,1.280040503E0,2.604398727E-1
9.648892101E0,-7.375597358E-1,1.243757725E0,5.475940704E-1
9.653922986E0,-8.351863623E-1,1.193819284E0,8.293647766E-1
9.658953872E0,-8.111847639E-1,1.158393145E0,1.139404297E0
9.663984757E0,-6.577031016E-1,1.060511351E0,1.473025322E0
9.669015642E0,-4.186364114E-1,9.525816441E-1,1.820722580E0
9.674046528E0,-1.418495774E-1,8.103351593E-1,2.187405586E0
9.679077413E0,1.116487458E-1,6.716020107E-1,2.544560432E0
9.684108299E0,3.011156023E-1,5.216004848E-1,2.878047943E0
9.689139184E0,3.287755251E-1,3.839130402E-1,3.101970673E0
9.694170069E0,2.209301889E-1,2.871134281E-1,3.192607880E0
9.699200955E0,-4.504170269E-2,2.454342842E-1,3.169281006E0
9.704231840E0,-3.594310880E-1,2.016010284E-1,3.065538406E0
9.709262726E0,-5.900818706E-1,1.370668411E-1,2.828655243E0
9.714293611E0,-6.972063184E-1,6.250095367E-2,2.534910202E0
9.719324497E0,-6.080369949E-1,-2.104139328E-2,2.289184570E0
9.724355382E0,-3.359302878E-1,-4.553771019E-2,2.114928246E0
9.729386267E0,1.698406339E-1,-1.101737022E-1,2.002027512E0
9.734417153E0,7.366867661E-1,-1.853806973E-1,2.045811653E0
9.739447986E0,1.222490549E0,-2.802519798E-1,2.169489861E0
9.744478819E0,1.535646200E0,-3.996076584E-1,2.306099892E0
9.749509653E0,1.633714437E0,-5.386326313E-1,2.359947205E0
9.754540486E0,1.464414120E0,-6.688613892E-1,2.407629013E0
9.759571319E0,1.051108122E0,-7.473578453E-1,2.396404266E0
9.764602153E0,4.633800089E-1,-8.314917088E-1,2.297458649E0
9.769632986E0,-1.824527830E-1,-9.166042805E-1,2.163449287E0
9.774663819E0,-8.101311922E-1,-9.885988235E-1,2.032773018E0
9.779694653E0,-1.315889597E0,-1.062096357E0,1.876914024E0
9.784725486E0,-1.692638755E0,-1.113358974E0,1.681772232E0
9.789756319E0,-1.957288146E0,-1.147531033E0,1.514632225E0
9.794787153E0,-2.155620098E0,-1.165177584E0,1.327976227E0
9.799817986E0,-2.266148090E0,-1.114263058E0,1.212992668E0
9.804848819E0,-2.295932293E0,-1.033838034E0,1.169895172E0
9.809879653E0,-2.313938618E0,-9.296293259E-1,1.237180710E0
9.814910486E0,-2.297791958E0,-8.361532688E-1,1.362415314E0
9.819941319E0,-2.296391010E0,-7.640707493E-1,1.541059494E0
9.824972153E0,-2.291208744E0,-6.810874939E-1,1.744677544E0
9.830002986E0,-2.287240982E0,-5.645644665E-1,1.930533409E0
9.835033819E0,-2.227294207E0,-4.206357002E-1,2.118131638E0
9.840064653E0,-1.996633291E0,-2.598533630E-1,2.231201172E0
9.845095486E0,-1.667262197E0,-1.165087223E-1,2.337010384E0
9.850126319E0,-1.281921268E0,1.860046387E-2,2.344822884E0
9.855157153E0,-8.545866013E-1,1.356923580E-1,2.302692413E0
9.860187986E0,-4.467195868E-1,2.014362812E-1,2.196355820E0
9.865218819E0,-6.230073422E-2,2.590110302E-1,2.002045631E0
9.870249653E0,3.907398880E-1,3.473541737E-1,1.714973450E0
9.875280486E0,8.129467368E-1,4.483559132E-1,1.378050804E0
9.880311319E0,1.205191731E0,5.202543736E-1,1.043605804E0
9.885342153E0,1.535005331E0,5.453405380E-1,6.347179413E-1
9.890372986E0,1.794646025E0,4.724390507E-1,1.605863571E-1
9.895403819E0,1.962649107E0,3.797516823E-1,-3.840847015E-1
9.900434653E0,1.983712077E0,2.446591854E-1,-9.184513092E-1
9.905465486E0,1.883391142E0,1.116344929E-1,-1.452700138E0
9.910496319E0,1.696026087E0,-6.590437889E-2,-1.992179394E0
9.915527153E0,1.407558322E0,-2.866067886E-1,-2.508759499E0
9.920557986E0,9.985958338E-1,-5.445833206E-1,-2.983799458E0
9.925588819E0,5.403995514E-1,-8.197419643E-1,-3.384263992E0
9.930619653E0,5.093343556E-2,-1.082655668E0,-3.720086098E0
9.935650486E0,-3.852039576E-1,-1.266226768E0,-3.890956402E0
9.940681319E0,-6.928256750E-1,-1.394618988E0,-3.963944912E0
9.945712153E0,-8.493667841E-1,-1.492479801E0,-3.938873768E0
9.950742986E0,-8.605914116E-1,-1.594292641E0,-3.839360714E0
9.955773872E0,-7.657916546E-1,-1.667594194E0,-3.693755150E0
9.960804757E0,-5.998334289E-1,-1.689666271E0,-3.492070198E0
9.965835642E0,-4.356999695E-1,-1.657037735E0,-3.248226643E0
9.970866528E0,-2.837344408E-1,-1.580579281E0,-3.014416218E0
9.975897413E0,-7.738425583E-2,-1.471037865E0,-2.828471661E0
9.980928299E0,1.399445534E-1,-1.348606348E0,-2.685189247E0
9.985959184E0,3.203159273E-1,-1.237831831E0,-2.589096069E0
9.990990069E0,4.541221559E-1,-1.139172316E0,-2.583027840E0
9.996020955E0,5.032482743E-1,-1.057619095E0,-2.580731392E0
1.000105184E1,4.579689205E-1,-9.410290718E-1,-2.601174355E0
1.000608273E1,3.997698426E-1,-7.942249775E-1,-2.644349098E0
1.001111361E1,3.286681175E-1,-6.649198532E-1,-2.710295677E0
1.001614450E1,2.348831892E-1,-5.764133930E-1,-2.765753746E0
1.002117538E1,9.871582687E-2,-5.136265755E-1,-2.791892529E0
1.002620627E1,-8.099851012E-2,-4.614555836E-1,-2.712547302E0
1.003123715E1,-2.473219037E-1,-3.955433369E-1,-2.609330177E0
1.003626804E1,-3.521083891E-1,-3.394336700E-1,-2.472829819E0
1.004129892E1,-3.752228618E-1,-3.025772572E-1,-2.322206497E0
1.004632981E1,-3.536079526E-1,-2.467265129E-1,-2.119143963E0
1.005136069E1,-3.149180710E-1,-1.815550327E-1,-1.849283695E0
1.005639158E1,-2.342939079E-1,-4.991626740E-2,-1.574750900E0
1.006142247E1,-8.731521666E-2,1.192266941E-1,-1.324153900E0
1.006645335E1,1.123340279E-1,3.208615780E-1,-1.087806225E0
1.007148424E1,3.414341807E-1,5.166952610E-1,-8.991613388E-1
1.007651512E1,5.673573017E-1,7.114205360E-1,-7.724609375E-1
1.008154601E1,7.576346993E-1,8.811235428E-1,-6.885023117E-1
1.008657689E1,9.226219058E-1,1.078529119E0,-6.520624161E-1
1.009160778E1,1.067717671E0,1.265622139E0,-6.727752686E-1
1.009663866E1,1.116466641E0,1.428733110E0,-7.412977219E-1
1.010166955E1,1.054810166E0,1.544981241E0,-8.484430313E-1
1.010670043E1,8.636990786E-1,1.591470003E0,-9.467582703E-1
1.011173132E1,6.101049185E-1,1.549924612E0,-1.041374683E0
1.011676220E1,3.320506513E-1,1.473928452E0,-1.056158543E0
1.012179309E1,2.422580123E-2,1.364057064E0,-1.010568142E0
1.012682398E1,-2.756417990E-1,1.230353832E0,-9.000806808E-1
1.013185486E1,-5.347845554E-1,1.097054243E0,-7.248859406E-1
1.013688575E1,-8.020905256E-1,9.495258331E-1,-3.940629959E-1
1.014191663E1,-9.973944426E-1,8.205909729E-1,-2.706527710E-2
1.014694752E1,-1.016181827E0,7.428874969E-1,3.477296829E-1
1.015197840E1,-8.880247474E-1,7.108526230E-1,7.258405685E-1
1.015700929E1,-6.421423554E-1,6.855070591E-1,1.136242867E0
1.016204017E1,-3.357515335E-1,6.470060349E-1,1.540942192E0
1.016707106E1,-5.443690717E-2,5.947577953E-1,1.887603760E0
1.017210194E1,1.451358497E-1,5.186018944E-1,2.229172707E0
1.017713283E1,2.260410190E-1,4.421067238E-1,2.503662109E0
